timestamp,quat_i,quat_j,quat_k,quat_real,accel_x,accel_y,accel_z,gyro_x,gyro_y,gyro_z
2026-09-02T19:11:45.726223,0.458740234375,0.4676513671875,0.5391845703125,0.529296875,0.0,0.0,0.0,0.0,0.0,0.0
2026-09-02T19:11:45.844184,0.4583740234375,0.46783447265625,0.5391845703125,0.5294189453125,-0.23046875,9.11328125,1.30859375,-0.005859375,0.009765625,-0.009765625
2026-09-02T19:11:46.159917,0.45733642578125,0.47161865234375,0.537109375,0.529052734375,0.2578125,-0.1953125,-0.1484375,0.01171875,0.01171875,-0.017578125
2026-09-02T19:11:46.260720,0.4560546875,0.47296142578125,0.536376953125,0.52978515625,0.28515625,0.07421875,-0.1875,0.005859375,0.017578125,-0.017578125
2026-09-02T19:11:46.360466,0.4554443359375,0.473876953125,0.53619384765625,0.52960205078125,0.09375,0.07421875,-0.0078125,0.005859375,0.0078125,-0.021484375
2026-09-02T19:11:46.466909,0.4549560546875,0.47467041015625,0.53582763671875,0.5296630859375,0.0,0.15625,0.03515625,0.0,0.005859375,-0.021484375
2026-09-02T19:11:46.566195,0.4547119140625,0.47491455078125,0.5357666015625,0.52972412109375,-0.0234375,-0.01171875,0.01953125,0.001953125,0.013671875,-0.017578125
2026-09-02T19:11:46.677728,0.4541015625,0.4757080078125,0.5360107421875,0.52935791015625,0.1015625,-0.01953125,-0.0546875,0.00390625,0.015625,-0.009765625
2026-09-02T19:11:46.771039,0.45367431640625,0.47601318359375,0.53619384765625,0.52923583984375,0.0234375,-0.04296875,0.58984375,0.001953125,0.01171875,-0.017578125
2026-09-02T19:11:46.868970,0.453369140625,0.47625732421875,0.53619384765625,0.529296875,-0.04296875,0.046875,0.06640625,0.001953125,0.005859375,-0.017578125
2026-09-02T19:11:46.967415,0.4527587890625,0.4765625,0.536376953125,0.52935791015625,0.0859375,0.00390625,-0.0859375,-0.00390625,0.01171875,-0.021484375
2026-09-02T19:11:47.062928,0.45245361328125,0.47674560546875,0.5364990234375,0.529296875,0.0703125,-0.03515625,-0.03125,-0.00390625,0.015625,-0.017578125
2026-09-02T19:11:47.164122,0.451904296875,0.47711181640625,0.5367431640625,0.52923583984375,0.0234375,0.01953125,0.01171875,-0.001953125,0.013671875,-0.0234375
2026-09-02T19:11:47.265571,0.45098876953125,0.47735595703125,0.537109375,0.52935791015625,0.0625,0.1171875,0.04296875,-0.01171875,0.01171875,-0.025390625
2026-09-02T19:11:47.364235,0.45068359375,0.4775390625,0.5372314453125,0.52935791015625,-0.21875,-0.00390625,-0.0390625,-0.005859375,0.015625,-0.0234375
2026-09-02T19:11:47.464056,0.449462890625,0.47833251953125,0.5374755859375,0.5294189453125,0.00390625,0.0234375,0.13671875,0.0,0.01953125,-0.0234375
2026-09-02T19:11:47.564589,0.4488525390625,0.47869873046875,0.53753662109375,0.529541015625,0.96875,-0.12890625,0.203125,0.0,0.009765625,-0.01171875
2026-09-02T19:11:47.664284,0.44903564453125,0.47747802734375,0.53900146484375,0.529052734375,0.65234375,-0.21875,0.05078125,-0.00390625,0.259765625,-0.017578125
2026-09-02T19:11:47.764988,0.44866943359375,0.477783203125,0.539306640625,0.52874755859375,0.44140625,-0.05859375,0.1015625,0.00390625,0.015625,-0.0234375
2026-09-02T19:11:47.865672,0.4481201171875,0.47857666015625,0.5391845703125,0.52862548828125,0.14453125,0.140625,-0.02734375,0.0078125,0.015625,-0.03515625
2026-09-02T19:11:47.965901,0.44720458984375,0.47930908203125,0.53900146484375,0.5289306640625,-0.125,0.171875,0.09375,-0.005859375,0.013671875,-0.041015625
2026-09-02T19:11:48.065769,0.44024658203125,0.4732666015625,0.5382080078125,0.52734375,-0.62109375,0.0625,1.04296875,0.0390625,0.021484375,-0.017578125
2026-09-02T19:11:48.167031,0.45098876953125,0.4827880859375,0.5367431640625,0.52484130859375,-0.80078125,0.3203125,0.703125,0.09765625,0.001953125,0.0078125
2026-09-02T19:11:48.266852,0.45452880859375,-1.517578125,0.5360107421875,0.5228271484375,-0.46484375,0.5703125,-0.35546875,0.07421875,-0.03515625,0.03515625
2026-09-02T19:11:48.365664,0.45758056640625,0.48150634765625,0.53662109375,0.52032470703125,-0.10546875,0.2265625,-1.44921875,0.0703125,-0.013671875,0.0625
2026-09-02T19:11:48.465583,0.45745849609375,0.47967529296875,0.53912353515625,0.5196533203125,0.13671875,-0.265625,-1.5,-0.01171875,0.013671875,0.041015625
2026-09-02T19:11:48.566045,0.45599365234375,0.47705078125,0.54168701171875,0.5206298828125,-0.23828125,-0.85546875,-0.32421875,-0.06640625,0.0078125,0.021484375
2026-09-02T19:11:48.666049,0.45513916015625,0.474365234375,0.54351806640625,0.52191162109375,-0.3125,-0.65625,-0.015625,-0.048828125,-0.01171875,0.013671875
2026-09-02T19:11:48.765458,0.45489501953125,0.47198486328125,0.544921875,0.5228271484375,-0.27734375,-0.42578125,0.2265625,-0.037109375,-0.015625,0.017578125
2026-09-02T19:11:48.871333,0.455810546875,0.47021484375,0.54534912109375,0.52313232421875,-0.24609375,-0.41796875,0.3828125,-0.0078125,-0.0234375,0.029296875
2026-09-02T19:11:48.965522,0.44842529296875,0.46600341796875,0.54681396484375,0.53167724609375,0.1484375,0.12109375,0.05859375,0.0078125,-0.05078125,0.029296875
2026-09-02T19:11:49.171560,0.44732666015625,0.462646484375,0.54638671875,0.5360107421875,0.02734375,0.25,-0.109375,0.005859375,-0.08203125,0.03125
2026-09-02T19:11:49.270367,0.4508056640625,0.45831298828125,0.54473876953125,0.5384521484375,0.09375,0.02734375,-0.0390625,0.00390625,-0.0859375,0.02734375
2026-09-02T19:11:49.382273,0.4534912109375,0.45513916015625,0.5433349609375,0.54034423828125,-0.109375,-0.15625,0.03515625,-0.017578125,-0.10546875,0.01953125
2026-09-02T19:11:49.483999,0.45654296875,0.45013427734375,0.5421142578125,0.543212890625,0.0234375,-0.25,0.05859375,-0.048828125,-0.142578125,0.05078125
2026-09-02T19:11:49.570852,0.46002197265625,0.444091796875,0.541015625,0.54632568359375,0.33203125,-0.26953125,0.1796875,-0.05078125,-0.15234375,0.048828125
2026-09-02T19:11:49.671447,0.4637451171875,0.43743896484375,0.539794921875,0.5496826171875,-0.05078125,-0.109375,0.515625,-0.03515625,-0.162109375,0.037109375
2026-09-02T19:11:49.770412,0.467529296875,0.42864990234375,0.53900146484375,0.55426025390625,0.046875,0.16796875,0.3359375,-0.025390625,-0.19140625,0.01953125
2026-09-02T19:11:49.869567,0.47149658203125,0.4110107421875,0.53778076171875,0.55950927734375,0.11328125,0.06640625,-0.1484375,-0.021484375,-0.208984375,0.0234375
2026-09-02T19:11:49.969431,0.47589111328125,0.40838623046875,0.53631591796875,0.56488037109375,0.09375,0.0,-0.05078125,-0.0390625,-0.224609375,0.025390625
2026-09-02T19:11:50.070454,0.481201171875,0.39764404296875,0.5341796875,0.570068359375,-0.05859375,0.0234375,0.109375,-0.046875,-0.2421875,0.01953125
2026-09-02T19:11:50.169709,0.486572265625,0.387451171875,0.53009033203125,0.57623291015625,-0.015625,0.0,0.1875,-0.0703125,-0.26953125,0.009765625
2026-09-02T19:11:50.275819,0.4923095703125,0.376953125,0.52508544921875,0.58294677734375,0.296875,-0.2890625,0.73046875,-0.04296875,-0.2890625,0.013671875
2026-09-02T19:11:50.370213,0.498291015625,0.36773681640625,0.51861572265625,0.5894775390625,0.12890625,-0.0546875,0.7890625,-0.021484375,-0.005859375,-0.056640625
2026-09-02T19:11:50.588581,0.50567626953125,0.35015869140625,0.50506591796875,0.60546875,-0.47265625,0.19140625,-0.25,0.09375,-0.3125,-0.078125
2026-09-02T19:11:50.687095,0.51007080078125,0.34161376953125,0.48748779296875,0.6146240234375,-0.02734375,-0.0546875,-0.53125,0.025390625,-0.306640625,-0.037109375
2026-09-02T19:11:50.788107,0.5152587890625,0.33404541015625,0.4859619140625,0.6219482421875,0.70703125,-0.26171875,-0.12109375,0.02734375,-0.32421875,-0.044921875
2026-09-02T19:11:50.886479,0.522705078125,0.32733154296875,0.47412109375,0.62835693359375,0.0546875,0.05859375,-0.32421875,-0.005859375,-0.375,-0.115234375
2026-09-02T19:11:50.986432,0.52978515625,0.3192138671875,0.46014404296875,0.636962890625,0.125,0.50390625,-0.8046875,-0.08984375,-0.35546875,-0.115234375
2026-09-02T19:11:51.093714,0.53326416015625,0.30926513671875,0.448486328125,0.647216796875,-0.08203125,-0.1875,0.12109375,-0.041015625,-0.33203125,-0.111328125
2026-09-02T19:11:51.196159,0.5396728515625,0.2960205078125,0.43060302734375,0.66009521484375,-0.7421875,-0.078125,0.83984375,-0.015625,-0.390625,-0.111328125
2026-09-02T19:11:51.295797,0.54595947265625,0.28607177734375,0.4163818359375,0.66839599609375,-0.703125,-0.5859375,0.93359375,-0.005859375,-0.40234375,-0.11328125
2026-09-02T19:11:51.396551,0.55255126953125,0.27569580078125,0.401611328125,0.67626953125,-0.5625,-0.40234375,0.57421875,0.001953125,-0.392578125,-0.1015625
2026-09-02T19:11:51.492784,0.54730224609375,0.269287109375,0.384521484375,0.69287109375,0.0703125,0.46484375,-0.21484375,-0.015625,-0.41796875,-0.078125
2026-09-02T19:11:51.596952,0.54718017578125,0.26019287109375,0.360107421875,0.705322265625,0.2421875,0.359375,-0.625,-0.013671875,-0.42578125,-0.095703125
2026-09-02T19:11:51.693425,0.55255126953125,0.24951171875,0.35137939453125,0.71343994140625,0.45703125,-0.4140625,-0.23046875,-0.005859375,-0.41015625,-0.111328125
2026-09-02T19:11:51.803006,0.5631103515625,0.2337646484375,0.32830810546875,0.721435546875,0.453125,-0.14453125,-0.3671875,-0.0078125,-0.37890625,-0.09765625
2026-09-02T19:11:51.894874,0.56732177734375,0.2283935546875,0.321044921875,0.72314453125,0.09765625,0.3671875,-0.1328125,0.0,-0.384765625,-0.09765625
2026-09-02T19:11:51.993132,0.57568359375,0.21661376953125,0.30694580078125,0.72625732421875,0.21875,0.296875,-0.4296875,-0.033203125,-0.375,-0.10546875
2026-09-02T19:11:52.093789,0.58349609375,0.20489501953125,0.2933349609375,0.72906494140625,0.33984375,0.01171875,-0.44921875,-0.029296875,-0.353515625,-0.091796875
2026-09-02T19:11:52.195554,0.59112548828125,0.19384765625,0.28045654296875,0.73095703125,0.07421875,0.01171875,0.109375,0.013671875,-0.33984375,-0.080078125
2026-09-02T19:11:52.301300,0.6019287109375,0.17822265625,0.26171875,0.73309326171875,-0.04296875,-0.08203125,0.4921875,0.017578125,-0.33203125,-0.064453125
2026-09-02T19:11:52.393156,0.60418701171875,0.17303466796875,0.255615234375,0.734619140625,0.07421875,-0.30078125,-0.3515625,0.001953125,-0.32421875,-0.052734375
2026-09-02T19:11:52.501428,0.6090087890625,0.16278076171875,0.24407958984375,0.73687744140625,0.44921875,-0.203125,-0.2578125,0.0078125,-0.291015625,-0.064453125
2026-09-02T19:11:52.708141,0.61865234375,0.14105224609375,0.21844482421875,0.74139404296875,-0.015625,0.328125,-0.26171875,-0.015625,-0.26171875,-0.06640625
2026-09-02T19:11:52.807247,0.61968994140625,0.13702392578125,0.213623046875,0.74267578125,-0.19921875,0.28125,-0.46875,-0.029296875,-0.251953125,-0.0546875
2026-09-02T19:11:52.911196,0.62152099609375,0.12359619140625,0.20098876953125,0.7470703125,-0.25390625,0.05859375,-0.12890625,-0.060546875,-0.248046875,-0.02734375
2026-09-02T19:11:53.008980,0.62921142578125,0.11505126953125,0.19305419921875,0.7440185546875,0.0390625,0.00390625,0.1328125,-0.041015625,-0.2265625,-0.04296875
2026-09-02T19:11:53.107309,0.63067626953125,0.11102294921875,0.189208984375,0.736572265625,-0.4609375,0.29296875,0.61328125,-0.052734375,-0.212890625,-0.052734375
2026-09-02T19:11:53.209248,0.631103515625,0.10302734375,0.18194580078125,0.74700927734375,-0.23046875,-0.55078125,1.12109375,-0.05859375,-0.201171875,-0.05859375
2026-09-02T19:11:53.307874,0.63189697265625,0.0960693359375,0.17437744140625,0.74908447265625,-0.25390625,-0.1640625,0.20703125,0.013671875,-0.201171875,-0.05859375
2026-09-02T19:11:53.406690,0.631103515625,0.0888671875,0.15936279296875,0.752197265625,-0.22265625,-0.33984375,0.28125,0.0234375,-0.203125,-0.0546875
2026-09-02T19:11:53.507771,0.62969970703125,0.08197021484375,0.15997314453125,0.7557373046875,-0.07421875,0.375,0.03515625,0.017578125,-0.203125,-0.03125
2026-09-02T19:11:53.608003,0.6300048828125,0.07513427734375,0.15338134765625,0.757568359375,0.26171875,0.07421875,-0.63671875,0.029296875,-0.193359375,-0.015625
2026-09-02T19:11:54.054244,0.6419677734375,0.05584716796875,0.1251220703125,0.75439453125,-0.28515625,0.46484375,0.0078125,-0.029296875,-0.1171875,-0.044921875
2026-09-02T19:11:54.153376,0.64599609375,0.052490234375,0.120361328125,0.751953125,-0.4609375,-0.12109375,0.18359375,-0.044921875,-0.107421875,-0.029296875
2026-09-02T19:11:54.254808,0.6466064453125,0.04925537109375,0.1162109375,0.7523193359375,-0.50390625,-0.515625,0.66015625,-0.025390625,-0.103515625,-0.017578125
2026-09-02T19:11:54.350487,0.64532470703125,0.04547119140625,0.1114501953125,0.75439453125,-0.03515625,-0.27734375,0.01953125,-0.005859375,-0.12109375,-0.01171875
2026-09-02T19:11:54.450630,0.64337158203125,0.04180908203125,0.10662841796875,0.75689697265625,0.140625,0.08203125,0.03515625,-0.2578125,-0.12890625,-0.02734375
2026-09-02T19:11:54.550593,0.6431884765625,0.0390625,0.10247802734375,0.7578125,0.1328125,0.10546875,-0.140625,0.02734375,-0.09765625,-0.03125
2026-09-02T19:11:54.650299,0.64306640625,0.0357666015625,0.09918212890625,0.758544921875,-0.19921875,0.1328125,-0.19921875,-0.009765625,-0.08984375,-0.015625
2026-09-02T19:11:54.750160,0.64373779296875,0.03240966796875,0.095703125,0.758544921875,0.453125,0.1171875,-0.0078125,0.01171875,-0.09765625,-0.005859375
2026-09-02T19:11:54.850690,0.64434814453125,0.0299072265625,0.09228515625,0.758544921875,0.1328125,-0.1796875,-0.4140625,0.001953125,-0.08203125,-0.02734375
2026-09-02T19:11:54.950766,0.64532470703125,0.02728271484375,0.08941650390625,0.7581787109375,-0.0546875,-0.07421875,0.09375,-0.0078125,-0.072265625,-0.01953125
2026-09-02T19:11:55.051446,0.64691162109375,0.0245361328125,0.0869140625,0.7572021484375,-0.11328125,0.2421875,0.1328125,0.029296875,-0.078125,-0.00390625
2026-09-02T19:11:55.151028,0.6478271484375,0.02203369140625,0.08453369140625,0.75677490234375,0.3984375,0.28515625,-0.51953125,-0.00390625,-0.07421875,-0.0078125
2026-09-02T19:11:55.687372,0.64892578125,0.0208740234375,0.0838623046875,0.75592041015625,0.078125,0.0703125,-0.1953125,0.029296875,-0.04296875,0.001953125
2026-09-02T19:11:55.787425,0.64892578125,0.0208740234375,0.0838623046875,0.75592041015625,0.078125,0.0703125,-0.1953125,0.029296875,-0.04296875,0.001953125
2026-09-02T19:11:55.887679,0.64892578125,0.0208740234375,0.0838623046875,0.75592041015625,0.078125,0.0703125,-0.1953125,0.029296875,-0.04296875,0.001953125
2026-09-02T19:11:55.987701,0.64892578125,0.0208740234375,0.0838623046875,0.75592041015625,0.078125,0.0703125,-0.1953125,0.029296875,-0.04296875,0.001953125
2026-09-02T19:11:56.088685,0.64892578125,0.0208740234375,0.0838623046875,0.75592041015625,0.078125,0.0703125,-0.1953125,0.029296875,-0.04296875,0.001953125
2026-09-02T19:11:56.188503,0.64892578125,0.0208740234375,0.0838623046875,0.75592041015625,0.078125,0.0703125,-0.1953125,0.029296875,-0.04296875,0.001953125
2026-09-02T19:11:56.288109,0.64892578125,0.0208740234375,0.0838623046875,0.75592041015625,0.078125,0.0703125,-0.1953125,0.029296875,-0.04296875,0.001953125
2026-09-02T19:11:56.389536,0.64892578125,0.0208740234375,0.0838623046875,0.75592041015625,0.078125,0.0703125,-0.1953125,0.029296875,-0.04296875,0.001953125
2026-09-02T19:11:56.490031,0.64892578125,0.0208740234375,0.0838623046875,0.75592041015625,0.078125,0.0703125,-0.1953125,0.029296875,-0.04296875,0.001953125
2026-09-02T19:11:56.589388,0.64892578125,0.0208740234375,0.0838623046875,0.75592041015625,0.078125,0.0703125,-0.1953125,0.029296875,-0.04296875,0.001953125
2026-09-02T19:11:56.689401,0.64892578125,0.0208740234375,0.0838623046875,0.75592041015625,0.078125,0.0703125,-0.1953125,0.029296875,-0.04296875,0.001953125
2026-09-02T19:11:56.789522,0.64892578125,0.0208740234375,0.0838623046875,0.75592041015625,0.078125,0.0703125,-0.1953125,0.029296875,-0.04296875,0.001953125
2026-09-02T19:11:56.889563,0.64892578125,0.0208740234375,0.0838623046875,0.75592041015625,0.078125,0.0703125,-0.1953125,0.029296875,-0.04296875,0.001953125
2026-09-02T19:11:56.990390,0.64892578125,0.0208740234375,0.0838623046875,0.75592041015625,0.078125,0.0703125,-0.1953125,0.029296875,-0.04296875,0.001953125
2026-09-02T19:11:57.090375,0.64892578125,0.0208740234375,0.0838623046875,0.75592041015625,0.078125,0.0703125,-0.1953125,0.029296875,-0.04296875,0.001953125
2026-09-02T19:11:57.190254,0.64892578125,0.0208740234375,0.0838623046875,0.75592041015625,0.078125,0.0703125,-0.1953125,0.029296875,-0.04296875,0.001953125
2026-09-02T19:11:57.290481,0.64892578125,0.0208740234375,0.0838623046875,0.75592041015625,0.078125,0.0703125,-0.1953125,0.029296875,-0.04296875,0.001953125
2026-09-02T19:11:57.390339,0.64892578125,0.0208740234375,0.0838623046875,0.75592041015625,0.078125,0.0703125,-0.1953125,0.029296875,-0.04296875,0.001953125
2026-09-02T19:11:57.490869,0.64892578125,0.0208740234375,0.0838623046875,0.75592041015625,0.078125,0.0703125,-0.1953125,0.029296875,-0.04296875,0.001953125
2026-09-02T19:11:57.591848,0.64892578125,0.0208740234375,0.0838623046875,0.75592041015625,0.078125,0.0703125,-0.1953125,0.029296875,-0.04296875,0.001953125
2026-09-02T19:11:57.692270,0.64892578125,0.0208740234375,0.0838623046875,0.75592041015625,0.078125,0.0703125,-0.1953125,0.029296875,-0.04296875,0.001953125
2026-09-02T19:11:57.792130,0.64892578125,0.0208740234375,0.0838623046875,0.75592041015625,0.078125,0.0703125,-0.1953125,0.029296875,-0.04296875,0.001953125
2026-09-02T19:11:57.892639,0.64892578125,0.0208740234375,0.0838623046875,0.75592041015625,0.078125,0.0703125,-0.1953125,0.029296875,-0.04296875,0.001953125
2026-09-02T19:11:57.993086,0.64892578125,0.0208740234375,0.0838623046875,0.75592041015625,0.078125,0.0703125,-0.1953125,0.029296875,-0.04296875,0.001953125
2026-09-02T19:11:58.093562,0.64892578125,0.0208740234375,0.0838623046875,0.75592041015625,0.078125,0.0703125,-0.1953125,0.029296875,-0.04296875,0.001953125
2026-09-02T19:11:58.194397,0.64892578125,0.0208740234375,0.0838623046875,0.75592041015625,0.078125,0.0703125,-0.1953125,0.029296875,-0.04296875,0.001953125
2026-09-02T19:11:58.292590,0.64892578125,0.0208740234375,0.0838623046875,0.75592041015625,0.078125,0.0703125,-0.1953125,0.029296875,-0.04296875,0.001953125
2026-09-02T19:11:58.392775,0.64892578125,0.0208740234375,0.0838623046875,0.75592041015625,0.078125,0.0703125,-0.1953125,0.029296875,-0.04296875,0.001953125
2026-09-02T19:11:58.492910,0.64892578125,0.0208740234375,0.0838623046875,0.75592041015625,0.078125,0.0703125,-0.1953125,0.029296875,-0.04296875,0.001953125
2026-09-02T19:11:58.594054,0.64892578125,0.0208740234375,0.0838623046875,0.75592041015625,0.078125,0.0703125,-0.1953125,0.029296875,-0.04296875,0.001953125
2026-09-02T19:11:58.695229,0.64892578125,0.0208740234375,0.0838623046875,0.75592041015625,0.078125,0.0703125,-0.1953125,0.029296875,-0.04296875,0.001953125
2026-09-02T19:11:58.793523,0.64892578125,0.0208740234375,0.0838623046875,0.75592041015625,0.078125,0.0703125,-0.1953125,0.029296875,-0.04296875,0.001953125
2026-09-02T19:11:58.894121,0.64892578125,0.0208740234375,0.0838623046875,0.75592041015625,0.078125,0.0703125,-0.1953125,0.029296875,-0.04296875,0.001953125
2026-09-02T19:11:58.994614,0.64892578125,0.0208740234375,0.0838623046875,0.75592041015625,0.078125,0.0703125,-0.1953125,0.029296875,-0.04296875,0.001953125
2026-09-02T19:11:59.094334,0.64892578125,0.0208740234375,0.0838623046875,0.75592041015625,0.078125,0.0703125,-0.1953125,0.029296875,-0.04296875,0.001953125
2026-09-02T19:11:59.197202,0.64892578125,0.0208740234375,0.0838623046875,0.75592041015625,0.078125,0.0703125,-0.1953125,0.029296875,-0.04296875,0.001953125
2026-09-02T19:11:59.295403,0.64892578125,0.0208740234375,0.0838623046875,0.75592041015625,0.078125,0.0703125,-0.1953125,0.029296875,-0.04296875,0.001953125
2026-09-02T19:11:59.395347,0.64892578125,0.0208740234375,0.0838623046875,0.75592041015625,0.078125,0.0703125,-0.1953125,0.029296875,-0.04296875,0.001953125
2026-09-02T19:11:59.494432,0.64892578125,0.0208740234375,0.0838623046875,0.75592041015625,0.078125,0.0703125,-0.1953125,0.029296875,-0.04296875,0.001953125
2026-09-02T19:11:59.594443,0.64892578125,0.0208740234375,0.0838623046875,0.75592041015625,0.078125,0.0703125,-0.1953125,0.029296875,-0.04296875,0.001953125
2026-09-02T19:11:59.694818,0.64892578125,0.0208740234375,0.0838623046875,0.75592041015625,0.078125,0.0703125,-0.1953125,0.029296875,-0.04296875,0.001953125
2026-09-02T19:11:59.795153,0.64892578125,0.0208740234375,0.0838623046875,0.75592041015625,0.078125,0.0703125,-0.1953125,0.029296875,-0.04296875,0.001953125
2026-09-02T19:11:59.895654,0.64892578125,0.0208740234375,0.0838623046875,0.75592041015625,0.078125,0.0703125,-0.1953125,0.029296875,-0.04296875,0.001953125
2026-09-02T19:11:59.996101,0.64892578125,0.0208740234375,0.0838623046875,0.75592041015625,0.078125,0.0703125,-0.1953125,0.029296875,-0.04296875,0.001953125
2026-09-02T19:12:00.095703,0.64892578125,0.0208740234375,0.0838623046875,0.75592041015625,0.078125,0.0703125,-0.1953125,0.029296875,-0.04296875,0.001953125
2026-09-02T19:12:00.196283,0.64892578125,0.0208740234375,0.0838623046875,0.75592041015625,0.078125,0.0703125,-0.1953125,0.029296875,-0.04296875,0.001953125
2026-09-02T19:12:00.296080,0.64892578125,0.0208740234375,0.0838623046875,0.75592041015625,0.078125,0.0703125,-0.1953125,0.029296875,-0.04296875,0.001953125
2026-09-02T19:12:00.396195,0.64892578125,0.0208740234375,0.0838623046875,0.75592041015625,0.078125,0.0703125,-0.1953125,0.029296875,-0.04296875,0.001953125
2026-09-02T19:12:00.496119,0.64892578125,0.0208740234375,0.0838623046875,0.75592041015625,0.078125,0.0703125,-0.1953125,0.029296875,-0.04296875,0.001953125
2026-09-02T19:12:00.596187,0.64892578125,0.0208740234375,0.0838623046875,0.75592041015625,0.078125,0.0703125,-0.1953125,0.029296875,-0.04296875,0.001953125
2026-09-02T19:12:00.695839,0.64892578125,0.0208740234375,0.0838623046875,0.75592041015625,0.078125,0.0703125,-0.1953125,0.029296875,-0.04296875,0.001953125
2026-09-02T19:12:00.796480,0.64892578125,0.0208740234375,0.0838623046875,0.75592041015625,0.078125,0.0703125,-0.1953125,0.029296875,-0.04296875,0.001953125
2026-09-02T19:12:00.896784,0.64892578125,0.0208740234375,0.0838623046875,0.75592041015625,0.078125,0.0703125,-0.1953125,0.029296875,-0.04296875,0.001953125
2026-09-02T19:12:00.996627,0.64892578125,0.0208740234375,0.0838623046875,0.75592041015625,0.078125,0.0703125,-0.1953125,0.029296875,-0.04296875,0.001953125
2026-09-02T19:12:01.096722,0.64892578125,0.0208740234375,0.0838623046875,0.75592041015625,0.078125,0.0703125,-0.1953125,0.029296875,-0.04296875,0.001953125
2026-09-02T19:12:01.197332,0.64892578125,0.0208740234375,0.0838623046875,0.75592041015625,0.078125,0.0703125,-0.1953125,0.029296875,-0.04296875,0.001953125
2026-09-02T19:12:01.296983,0.64892578125,0.0208740234375,0.0838623046875,0.75592041015625,0.078125,0.0703125,-0.1953125,0.029296875,-0.04296875,0.001953125
2026-09-02T19:12:01.397090,0.64892578125,0.0208740234375,0.0838623046875,0.75592041015625,0.078125,0.0703125,-0.1953125,0.029296875,-0.04296875,0.001953125
2026-09-02T19:12:01.497169,0.64892578125,0.0208740234375,0.0838623046875,0.75592041015625,0.078125,0.0703125,-0.1953125,0.029296875,-0.04296875,0.001953125
2026-09-02T19:12:01.597237,0.64892578125,0.0208740234375,0.0838623046875,0.75592041015625,0.078125,0.0703125,-0.1953125,0.029296875,-0.04296875,0.001953125
2026-09-02T19:12:01.697465,0.64892578125,0.0208740234375,0.0838623046875,0.75592041015625,0.078125,0.0703125,-0.1953125,0.029296875,-0.04296875,0.001953125
2026-09-02T19:12:01.797464,0.64892578125,0.0208740234375,0.0838623046875,0.75592041015625,0.078125,0.0703125,-0.1953125,0.029296875,-0.04296875,0.001953125
2026-09-02T19:12:01.897594,0.64892578125,0.0208740234375,0.0838623046875,0.75592041015625,0.078125,0.0703125,-0.1953125,0.029296875,-0.04296875,0.001953125
2026-09-02T19:12:01.997762,0.64892578125,0.0208740234375,0.0838623046875,0.75592041015625,0.078125,0.0703125,-0.1953125,0.029296875,-0.04296875,0.001953125
2026-09-02T19:12:02.097868,0.64892578125,0.0208740234375,0.0838623046875,0.75592041015625,0.078125,0.0703125,-0.1953125,0.029296875,-0.04296875,0.001953125
2026-09-02T19:12:02.198501,0.64892578125,0.0208740234375,0.0838623046875,0.75592041015625,0.078125,0.0703125,-0.1953125,0.029296875,-0.04296875,0.001953125
2026-09-02T19:12:02.298476,0.64892578125,0.0208740234375,0.0838623046875,0.75592041015625,0.078125,0.0703125,-0.1953125,0.029296875,-0.04296875,0.001953125
2026-09-02T19:12:02.398363,0.64892578125,0.0208740234375,0.0838623046875,0.75592041015625,0.078125,0.0703125,-0.1953125,0.029296875,-0.04296875,0.001953125
2026-09-02T19:12:02.498405,0.64892578125,0.0208740234375,0.0838623046875,0.75592041015625,0.078125,0.0703125,-0.1953125,0.029296875,-0.04296875,0.001953125
2026-09-02T19:12:02.598428,0.64892578125,0.0208740234375,0.0838623046875,0.75592041015625,0.078125,0.0703125,-0.1953125,0.029296875,-0.04296875,0.001953125
2026-09-02T19:12:02.698500,0.64892578125,0.0208740234375,0.0838623046875,0.75592041015625,0.078125,0.0703125,-0.1953125,0.029296875,-0.04296875,0.001953125
2026-09-02T19:12:02.798607,0.64892578125,0.0208740234375,0.0838623046875,0.75592041015625,0.078125,0.0703125,-0.1953125,0.029296875,-0.04296875,0.001953125
2026-09-02T19:12:02.898740,0.64892578125,0.0208740234375,0.0838623046875,0.75592041015625,0.078125,0.0703125,-0.1953125,0.029296875,-0.04296875,0.001953125
2026-09-02T19:12:02.998827,0.64892578125,0.0208740234375,0.0838623046875,0.75592041015625,0.078125,0.0703125,-0.1953125,0.029296875,-0.04296875,0.001953125
2026-09-02T19:12:03.099134,0.64892578125,0.0208740234375,0.0838623046875,0.75592041015625,0.078125,0.0703125,-0.1953125,0.029296875,-0.04296875,0.001953125
2026-09-02T19:12:03.199127,0.64892578125,0.0208740234375,0.0838623046875,0.75592041015625,0.078125,0.0703125,-0.1953125,0.029296875,-0.04296875,0.001953125
2026-09-02T19:12:03.299247,0.64892578125,0.0208740234375,0.0838623046875,0.75592041015625,0.078125,0.0703125,-0.1953125,0.029296875,-0.04296875,0.001953125
2026-09-02T19:12:03.399414,0.64892578125,0.0208740234375,0.0838623046875,0.75592041015625,0.078125,0.0703125,-0.1953125,0.029296875,-0.04296875,0.001953125
2026-09-02T19:12:03.499366,0.64892578125,0.0208740234375,0.0838623046875,0.75592041015625,0.078125,0.0703125,-0.1953125,0.029296875,-0.04296875,0.001953125
2026-09-02T19:12:03.599457,0.64892578125,0.0208740234375,0.0838623046875,0.75592041015625,0.078125,0.0703125,-0.1953125,0.029296875,-0.04296875,0.001953125
2026-09-02T19:12:03.699557,0.64892578125,0.0208740234375,0.0838623046875,0.75592041015625,0.078125,0.0703125,-0.1953125,0.029296875,-0.04296875,0.001953125
2026-09-02T19:12:03.800878,0.64892578125,0.0208740234375,0.0838623046875,0.75592041015625,0.078125,0.0703125,-0.1953125,0.029296875,-0.04296875,0.001953125
2026-09-02T19:12:03.900010,0.64892578125,0.0208740234375,0.0838623046875,0.75592041015625,0.078125,0.0703125,-0.1953125,0.029296875,-0.04296875,0.001953125
2026-09-02T19:12:04.000379,0.64892578125,0.0208740234375,0.0838623046875,0.75592041015625,0.078125,0.0703125,-0.1953125,0.029296875,-0.04296875,0.001953125
2026-09-02T19:12:04.100082,0.64892578125,0.0208740234375,0.0838623046875,0.75592041015625,0.078125,0.0703125,-0.1953125,0.029296875,-0.04296875,0.001953125
2026-09-02T19:12:04.200747,0.64892578125,0.0208740234375,0.0838623046875,0.75592041015625,0.078125,0.0703125,-0.1953125,0.029296875,-0.04296875,0.001953125
2026-09-02T19:12:04.301161,0.64892578125,0.0208740234375,0.0838623046875,0.75592041015625,0.078125,0.0703125,-0.1953125,0.029296875,-0.04296875,0.001953125
2026-09-02T19:12:04.400678,0.64892578125,0.0208740234375,0.0838623046875,0.75592041015625,0.078125,0.0703125,-0.1953125,0.029296875,-0.04296875,0.001953125
2026-09-02T19:12:04.500427,0.64892578125,0.0208740234375,0.0838623046875,0.75592041015625,0.078125,0.0703125,-0.1953125,0.029296875,-0.04296875,0.001953125
2026-09-02T19:12:04.600854,0.64892578125,0.0208740234375,0.0838623046875,0.75592041015625,0.078125,0.0703125,-0.1953125,0.029296875,-0.04296875,0.001953125
2026-09-02T19:12:04.700637,0.64892578125,0.0208740234375,0.0838623046875,0.75592041015625,0.078125,0.0703125,-0.1953125,0.029296875,-0.04296875,0.001953125
2026-09-02T19:12:04.800805,0.64892578125,0.0208740234375,0.0838623046875,0.75592041015625,0.078125,0.0703125,-0.1953125,0.029296875,-0.04296875,0.001953125
2026-09-02T19:12:04.900855,0.64892578125,0.0208740234375,0.0838623046875,0.75592041015625,0.078125,0.0703125,-0.1953125,0.029296875,-0.04296875,0.001953125
2026-09-02T19:12:05.000932,0.64892578125,0.0208740234375,0.0838623046875,0.75592041015625,0.078125,0.0703125,-0.1953125,0.029296875,-0.04296875,0.001953125
2026-09-02T19:12:05.101040,0.64892578125,0.0208740234375,0.0838623046875,0.75592041015625,0.078125,0.0703125,-0.1953125,0.029296875,-0.04296875,0.001953125
2026-09-02T19:12:05.201243,0.64892578125,0.0208740234375,0.0838623046875,0.75592041015625,0.078125,0.0703125,-0.1953125,0.029296875,-0.04296875,0.001953125
2026-09-02T19:12:05.301392,0.64892578125,0.0208740234375,0.0838623046875,0.75592041015625,0.078125,0.0703125,-0.1953125,0.029296875,-0.04296875,0.001953125
2026-09-02T19:12:05.401408,0.64892578125,0.0208740234375,0.0838623046875,0.75592041015625,0.078125,0.0703125,-0.1953125,0.029296875,-0.04296875,0.001953125
2026-09-02T19:12:05.501513,0.64892578125,0.0208740234375,0.0838623046875,0.75592041015625,0.078125,0.0703125,-0.1953125,0.029296875,-0.04296875,0.001953125
2026-09-02T19:12:05.601658,0.64892578125,0.0208740234375,0.0838623046875,0.75592041015625,0.078125,0.0703125,-0.1953125,0.029296875,-0.04296875,0.001953125
2026-09-02T19:12:05.701633,0.64892578125,0.0208740234375,0.0838623046875,0.75592041015625,0.078125,0.0703125,-0.1953125,0.029296875,-0.04296875,0.001953125
2026-09-02T19:12:05.801940,0.64892578125,0.0208740234375,0.0838623046875,0.75592041015625,0.078125,0.0703125,-0.1953125,0.029296875,-0.04296875,0.001953125
2026-09-02T19:12:05.901848,0.64892578125,0.0208740234375,0.0838623046875,0.75592041015625,0.078125,0.0703125,-0.1953125,0.029296875,-0.04296875,0.001953125
2026-09-02T19:12:06.002285,0.64892578125,0.0208740234375,0.0838623046875,0.75592041015625,0.078125,0.0703125,-0.1953125,0.029296875,-0.04296875,0.001953125
2026-09-02T19:12:06.102038,0.64892578125,0.0208740234375,0.0838623046875,0.75592041015625,0.078125,0.0703125,-0.1953125,0.029296875,-0.04296875,0.001953125
2026-09-02T19:12:06.202366,0.64892578125,0.0208740234375,0.0838623046875,0.75592041015625,0.078125,0.0703125,-0.1953125,0.029296875,-0.04296875,0.001953125
2026-09-02T19:12:06.302265,0.64892578125,0.0208740234375,0.0838623046875,0.75592041015625,0.078125,0.0703125,-0.1953125,0.029296875,-0.04296875,0.001953125
2026-09-02T19:12:06.402463,0.64892578125,0.0208740234375,0.0838623046875,0.75592041015625,0.078125,0.0703125,-0.1953125,0.029296875,-0.04296875,0.001953125
2026-09-02T19:12:06.502584,0.64892578125,0.0208740234375,0.0838623046875,0.75592041015625,0.078125,0.0703125,-0.1953125,0.029296875,-0.04296875,0.001953125
2026-09-02T19:12:06.602664,0.64892578125,0.0208740234375,0.0838623046875,0.75592041015625,0.078125,0.0703125,-0.1953125,0.029296875,-0.04296875,0.001953125
2026-09-02T19:12:06.702622,0.64892578125,0.0208740234375,0.0838623046875,0.75592041015625,0.078125,0.0703125,-0.1953125,0.029296875,-0.04296875,0.001953125
2026-09-02T19:12:06.802889,0.64892578125,0.0208740234375,0.0838623046875,0.75592041015625,0.078125,0.0703125,-0.1953125,0.029296875,-0.04296875,0.001953125
2026-09-02T19:12:06.902816,0.64892578125,0.0208740234375,0.0838623046875,0.75592041015625,0.078125,0.0703125,-0.1953125,0.029296875,-0.04296875,0.001953125
2026-09-02T19:12:07.002982,0.64892578125,0.0208740234375,0.0838623046875,0.75592041015625,0.078125,0.0703125,-0.1953125,0.029296875,-0.04296875,0.001953125
2026-09-02T19:12:07.103011,0.64892578125,0.0208740234375,0.0838623046875,0.75592041015625,0.078125,0.0703125,-0.1953125,0.029296875,-0.04296875,0.001953125
2026-09-02T19:12:07.203367,0.64892578125,0.0208740234375,0.0838623046875,0.75592041015625,0.078125,0.0703125,-0.1953125,0.029296875,-0.04296875,0.001953125
2026-09-02T19:12:07.303346,0.64892578125,0.0208740234375,0.0838623046875,0.75592041015625,0.078125,0.0703125,-0.1953125,0.029296875,-0.04296875,0.001953125
2026-09-02T19:12:07.403350,0.64892578125,0.0208740234375,0.0838623046875,0.75592041015625,0.078125,0.0703125,-0.1953125,0.029296875,-0.04296875,0.001953125
2026-09-02T19:12:07.503612,0.64892578125,0.0208740234375,0.0838623046875,0.75592041015625,0.078125,0.0703125,-0.1953125,0.029296875,-0.04296875,0.001953125
2026-09-02T19:12:07.605516,0.64892578125,0.0208740234375,0.0838623046875,0.75592041015625,0.078125,0.0703125,-0.1953125,0.029296875,-0.04296875,0.001953125
2026-09-02T19:12:07.705620,0.64892578125,0.0208740234375,0.0838623046875,0.75592041015625,0.078125,0.0703125,-0.1953125,0.029296875,-0.04296875,0.001953125
2026-09-02T19:12:07.805852,0.64892578125,0.0208740234375,0.0838623046875,0.75592041015625,0.078125,0.0703125,-0.1953125,0.029296875,-0.04296875,0.001953125
2026-09-02T19:12:07.905921,0.64892578125,0.0208740234375,0.0838623046875,0.75592041015625,0.078125,0.0703125,-0.1953125,0.029296875,-0.04296875,0.001953125
2026-09-02T19:12:08.006028,0.64892578125,0.0208740234375,0.0838623046875,0.75592041015625,0.078125,0.0703125,-0.1953125,0.029296875,-0.04296875,0.001953125
2026-09-02T19:12:08.106386,0.64892578125,0.0208740234375,0.0838623046875,0.75592041015625,0.078125,0.0703125,-0.1953125,0.029296875,-0.04296875,0.001953125
2026-09-02T19:12:08.206265,0.64892578125,0.0208740234375,0.0838623046875,0.75592041015625,0.078125,0.0703125,-0.1953125,0.029296875,-0.04296875,0.001953125
2026-09-02T19:12:08.306382,0.64892578125,0.0208740234375,0.0838623046875,0.75592041015625,0.078125,0.0703125,-0.1953125,0.029296875,-0.04296875,0.001953125
2026-09-02T19:12:08.406499,0.64892578125,0.0208740234375,0.0838623046875,0.75592041015625,0.078125,0.0703125,-0.1953125,0.029296875,-0.04296875,0.001953125
2026-09-02T19:12:08.506591,0.64892578125,0.0208740234375,0.0838623046875,0.75592041015625,0.078125,0.0703125,-0.1953125,0.029296875,-0.04296875,0.001953125
2026-09-02T19:12:08.606872,0.64892578125,0.0208740234375,0.0838623046875,0.75592041015625,0.078125,0.0703125,-0.1953125,0.029296875,-0.04296875,0.001953125
2026-09-02T19:12:08.706887,0.64892578125,0.0208740234375,0.0838623046875,0.75592041015625,0.078125,0.0703125,-0.1953125,0.029296875,-0.04296875,0.001953125
2026-09-02T19:12:08.806941,0.64892578125,0.0208740234375,0.0838623046875,0.75592041015625,0.078125,0.0703125,-0.1953125,0.029296875,-0.04296875,0.001953125
2026-09-02T19:12:08.907594,0.64892578125,0.0208740234375,0.0838623046875,0.75592041015625,0.078125,0.0703125,-0.1953125,0.029296875,-0.04296875,0.001953125
2026-09-02T19:12:09.007376,0.64892578125,0.0208740234375,0.0838623046875,0.75592041015625,0.078125,0.0703125,-0.1953125,0.029296875,-0.04296875,0.001953125
2026-09-02T19:12:09.107326,0.64892578125,0.0208740234375,0.0838623046875,0.75592041015625,0.078125,0.0703125,-0.1953125,0.029296875,-0.04296875,0.001953125
2026-09-02T19:12:09.206793,0.64892578125,0.0208740234375,0.0838623046875,0.75592041015625,0.078125,0.0703125,-0.1953125,0.029296875,-0.04296875,0.001953125
2026-09-02T19:12:09.307878,0.64892578125,0.0208740234375,0.0838623046875,0.75592041015625,0.078125,0.0703125,-0.1953125,0.029296875,-0.04296875,0.001953125
2026-09-02T19:12:09.407585,0.64892578125,0.0208740234375,0.0838623046875,0.75592041015625,0.078125,0.0703125,-0.1953125,0.029296875,-0.04296875,0.001953125
2026-09-02T19:12:09.507719,0.64892578125,0.0208740234375,0.0838623046875,0.75592041015625,0.078125,0.0703125,-0.1953125,0.029296875,-0.04296875,0.001953125
2026-09-02T19:12:09.608111,0.64892578125,0.0208740234375,0.0838623046875,0.75592041015625,0.078125,0.0703125,-0.1953125,0.029296875,-0.04296875,0.001953125
2026-09-02T19:12:09.707889,0.64892578125,0.0208740234375,0.0838623046875,0.75592041015625,0.078125,0.0703125,-0.1953125,0.029296875,-0.04296875,0.001953125
2026-09-02T19:12:09.808249,0.64892578125,0.0208740234375,0.0838623046875,0.75592041015625,0.078125,0.0703125,-0.1953125,0.029296875,-0.04296875,0.001953125
2026-09-02T19:12:09.908405,0.64892578125,0.0208740234375,0.0838623046875,0.75592041015625,0.078125,0.0703125,-0.1953125,0.029296875,-0.04296875,0.001953125
2026-09-02T19:12:10.008636,0.64892578125,0.0208740234375,0.0838623046875,0.75592041015625,0.078125,0.0703125,-0.1953125,0.029296875,-0.04296875,0.001953125
2026-09-02T19:12:10.108645,0.64892578125,0.0208740234375,0.0838623046875,0.75592041015625,0.078125,0.0703125,-0.1953125,0.029296875,-0.04296875,0.001953125
2026-09-02T19:12:10.208556,0.64892578125,0.0208740234375,0.0838623046875,0.75592041015625,0.078125,0.0703125,-0.1953125,0.029296875,-0.04296875,0.001953125
2026-09-02T19:12:10.308805,0.64892578125,0.0208740234375,0.0838623046875,0.75592041015625,0.078125,0.0703125,-0.1953125,0.029296875,-0.04296875,0.001953125
2026-09-02T19:12:10.408747,0.64892578125,0.0208740234375,0.0838623046875,0.75592041015625,0.078125,0.0703125,-0.1953125,0.029296875,-0.04296875,0.001953125
2026-09-02T19:12:10.509228,0.64892578125,0.0208740234375,0.0838623046875,0.75592041015625,0.078125,0.0703125,-0.1953125,0.029296875,-0.04296875,0.001953125
2026-09-02T19:12:10.608970,0.64892578125,0.0208740234375,0.0838623046875,0.75592041015625,0.078125,0.0703125,-0.1953125,0.029296875,-0.04296875,0.001953125
2026-09-02T19:12:10.709083,0.64892578125,0.0208740234375,0.0838623046875,0.75592041015625,0.078125,0.0703125,-0.1953125,0.029296875,-0.04296875,0.001953125
2026-09-02T19:12:10.809354,0.64892578125,0.0208740234375,0.0838623046875,0.75592041015625,0.078125,0.0703125,-0.1953125,0.029296875,-0.04296875,0.001953125
2026-09-02T19:12:10.909389,0.64892578125,0.0208740234375,0.0838623046875,0.75592041015625,0.078125,0.0703125,-0.1953125,0.029296875,-0.04296875,0.001953125
2026-09-02T19:12:11.009496,0.64892578125,0.0208740234375,0.0838623046875,0.75592041015625,0.078125,0.0703125,-0.1953125,0.029296875,-0.04296875,0.001953125
2026-09-02T19:12:11.109654,0.64892578125,0.0208740234375,0.0838623046875,0.75592041015625,0.078125,0.0703125,-0.1953125,0.029296875,-0.04296875,0.001953125
2026-09-02T19:12:11.209690,0.64892578125,0.0208740234375,0.0838623046875,0.75592041015625,0.078125,0.0703125,-0.1953125,0.029296875,-0.04296875,0.001953125
2026-09-02T19:12:11.310146,0.64892578125,0.0208740234375,0.0838623046875,0.75592041015625,0.078125,0.0703125,-0.1953125,0.029296875,-0.04296875,0.001953125
2026-09-02T19:12:11.409955,0.64892578125,0.0208740234375,0.0838623046875,0.75592041015625,0.078125,0.0703125,-0.1953125,0.029296875,-0.04296875,0.001953125
2026-09-02T19:12:11.510278,0.64892578125,0.0208740234375,0.0838623046875,0.75592041015625,0.078125,0.0703125,-0.1953125,0.029296875,-0.04296875,0.001953125
2026-09-02T19:12:11.610297,0.64892578125,0.0208740234375,0.0838623046875,0.75592041015625,0.078125,0.0703125,-0.1953125,0.029296875,-0.04296875,0.001953125
2026-09-02T19:12:11.710495,0.64892578125,0.0208740234375,0.0838623046875,0.75592041015625,0.078125,0.0703125,-0.1953125,0.029296875,-0.04296875,0.001953125
2026-09-02T19:12:11.810427,0.64892578125,0.0208740234375,0.0838623046875,0.75592041015625,0.078125,0.0703125,-0.1953125,0.029296875,-0.04296875,0.001953125
2026-09-02T19:12:11.910578,0.64892578125,0.0208740234375,0.0838623046875,0.75592041015625,0.078125,0.0703125,-0.1953125,0.029296875,-0.04296875,0.001953125
2026-09-02T19:12:12.010770,0.64892578125,0.0208740234375,0.0838623046875,0.75592041015625,0.078125,0.0703125,-0.1953125,0.029296875,-0.04296875,0.001953125
2026-09-02T19:12:12.110804,0.64892578125,0.0208740234375,0.0838623046875,0.75592041015625,0.078125,0.0703125,-0.1953125,0.029296875,-0.04296875,0.001953125
2026-09-02T19:12:12.211164,0.64892578125,0.0208740234375,0.0838623046875,0.75592041015625,0.078125,0.0703125,-0.1953125,0.029296875,-0.04296875,0.001953125
2026-09-02T19:12:12.311081,0.64892578125,0.0208740234375,0.0838623046875,0.75592041015625,0.078125,0.0703125,-0.1953125,0.029296875,-0.04296875,0.001953125
2026-09-02T19:12:12.411429,0.64892578125,0.0208740234375,0.0838623046875,0.75592041015625,0.078125,0.0703125,-0.1953125,0.029296875,-0.04296875,0.001953125
2026-09-02T19:12:12.511259,0.64892578125,0.0208740234375,0.0838623046875,0.75592041015625,0.078125,0.0703125,-0.1953125,0.029296875,-0.04296875,0.001953125
2026-09-02T19:12:12.611559,0.64892578125,0.0208740234375,0.0838623046875,0.75592041015625,0.078125,0.0703125,-0.1953125,0.029296875,-0.04296875,0.001953125
2026-09-02T19:12:12.711449,0.64892578125,0.0208740234375,0.0838623046875,0.75592041015625,0.078125,0.0703125,-0.1953125,0.029296875,-0.04296875,0.001953125
2026-09-02T19:12:12.811765,0.64892578125,0.0208740234375,0.0838623046875,0.75592041015625,0.078125,0.0703125,-0.1953125,0.029296875,-0.04296875,0.001953125
2026-09-02T19:12:12.911699,0.64892578125,0.0208740234375,0.0838623046875,0.75592041015625,0.078125,0.0703125,-0.1953125,0.029296875,-0.04296875,0.001953125
2026-09-02T19:12:13.012053,0.64892578125,0.0208740234375,0.0838623046875,0.75592041015625,0.078125,0.0703125,-0.1953125,0.029296875,-0.04296875,0.001953125
2026-09-02T19:12:13.112116,0.64892578125,0.0208740234375,0.0838623046875,0.75592041015625,0.078125,0.0703125,-0.1953125,0.029296875,-0.04296875,0.001953125
2026-09-02T19:12:13.212046,0.64892578125,0.0208740234375,0.0838623046875,0.75592041015625,0.078125,0.0703125,-0.1953125,0.029296875,-0.04296875,0.001953125
2026-09-02T19:12:13.312391,0.64892578125,0.0208740234375,0.0838623046875,0.75592041015625,0.078125,0.0703125,-0.1953125,0.029296875,-0.04296875,0.001953125
2026-09-02T19:12:13.412242,0.64892578125,0.0208740234375,0.0838623046875,0.75592041015625,0.078125,0.0703125,-0.1953125,0.029296875,-0.04296875,0.001953125
2026-09-02T19:12:13.512762,0.64892578125,0.0208740234375,0.0838623046875,0.75592041015625,0.078125,0.0703125,-0.1953125,0.029296875,-0.04296875,0.001953125
2026-09-02T19:12:13.612499,0.64892578125,0.0208740234375,0.0838623046875,0.75592041015625,0.078125,0.0703125,-0.1953125,0.029296875,-0.04296875,0.001953125
2026-09-02T19:12:13.713195,0.64892578125,0.0208740234375,0.0838623046875,0.75592041015625,0.078125,0.0703125,-0.1953125,0.029296875,-0.04296875,0.001953125
2026-09-02T19:12:13.813020,0.64892578125,0.0208740234375,0.0838623046875,0.75592041015625,0.078125,0.0703125,-0.1953125,0.029296875,-0.04296875,0.001953125
2026-09-02T19:12:13.913695,0.64892578125,0.0208740234375,0.0838623046875,0.75592041015625,0.078125,0.0703125,-0.1953125,0.029296875,-0.04296875,0.001953125
2026-09-02T19:12:14.014404,0.64892578125,0.0208740234375,0.0838623046875,0.75592041015625,0.078125,0.0703125,-0.1953125,0.029296875,-0.04296875,0.001953125
2026-09-02T19:12:14.113455,0.64892578125,0.0208740234375,0.0838623046875,0.75592041015625,0.078125,0.0703125,-0.1953125,0.029296875,-0.04296875,0.001953125
2026-09-02T19:12:14.213601,0.64892578125,0.0208740234375,0.0838623046875,0.75592041015625,0.078125,0.0703125,-0.1953125,0.029296875,-0.04296875,0.001953125
2026-09-02T19:12:14.313652,0.64892578125,0.0208740234375,0.0838623046875,0.75592041015625,0.078125,0.0703125,-0.1953125,0.029296875,-0.04296875,0.001953125
2026-09-02T19:12:14.413707,0.64892578125,0.0208740234375,0.0838623046875,0.75592041015625,0.078125,0.0703125,-0.1953125,0.029296875,-0.04296875,0.001953125
2026-09-02T19:12:14.513798,0.64892578125,0.0208740234375,0.0838623046875,0.75592041015625,0.078125,0.0703125,-0.1953125,0.029296875,-0.04296875,0.001953125
2026-09-02T19:12:14.613929,0.64892578125,0.0208740234375,0.0838623046875,0.75592041015625,0.078125,0.0703125,-0.1953125,0.029296875,-0.04296875,0.001953125
2026-09-02T19:12:14.714222,0.64892578125,0.0208740234375,0.0838623046875,0.75592041015625,0.078125,0.0703125,-0.1953125,0.029296875,-0.04296875,0.001953125
2026-09-02T19:12:14.814157,0.64892578125,0.0208740234375,0.0838623046875,0.75592041015625,0.078125,0.0703125,-0.1953125,0.029296875,-0.04296875,0.001953125
2026-09-02T19:12:14.914265,0.64892578125,0.0208740234375,0.0838623046875,0.75592041015625,0.078125,0.0703125,-0.1953125,0.029296875,-0.04296875,0.001953125
2026-09-02T19:12:15.014335,0.64892578125,0.0208740234375,0.0838623046875,0.75592041015625,0.078125,0.0703125,-0.1953125,0.029296875,-0.04296875,0.001953125
2026-09-02T19:12:15.114430,0.64892578125,0.0208740234375,0.0838623046875,0.75592041015625,0.078125,0.0703125,-0.1953125,0.029296875,-0.04296875,0.001953125
2026-09-02T19:12:15.214553,0.64892578125,0.0208740234375,0.0838623046875,0.75592041015625,0.078125,0.0703125,-0.1953125,0.029296875,-0.04296875,0.001953125
2026-09-02T19:12:15.314695,0.64892578125,0.0208740234375,0.0838623046875,0.75592041015625,0.078125,0.0703125,-0.1953125,0.029296875,-0.04296875,0.001953125
2026-09-02T19:12:15.414810,0.64892578125,0.0208740234375,0.0838623046875,0.75592041015625,0.078125,0.0703125,-0.1953125,0.029296875,-0.04296875,0.001953125
2026-09-02T19:12:15.514902,0.64892578125,0.0208740234375,0.0838623046875,0.75592041015625,0.078125,0.0703125,-0.1953125,0.029296875,-0.04296875,0.001953125
2026-09-02T19:12:15.614947,0.64892578125,0.0208740234375,0.0838623046875,0.75592041015625,0.078125,0.0703125,-0.1953125,0.029296875,-0.04296875,0.001953125
2026-09-02T19:12:15.715275,0.64892578125,0.0208740234375,0.0838623046875,0.75592041015625,0.078125,0.0703125,-0.1953125,0.029296875,-0.04296875,0.001953125
2026-09-02T19:12:15.815102,0.64892578125,0.0208740234375,0.0838623046875,0.75592041015625,0.078125,0.0703125,-0.1953125,0.029296875,-0.04296875,0.001953125
2026-09-02T19:12:15.915301,0.64892578125,0.0208740234375,0.0838623046875,0.75592041015625,0.078125,0.0703125,-0.1953125,0.029296875,-0.04296875,0.001953125
2026-09-02T19:12:16.015295,0.64892578125,0.0208740234375,0.0838623046875,0.75592041015625,0.078125,0.0703125,-0.1953125,0.029296875,-0.04296875,0.001953125
2026-09-02T19:12:16.115512,0.64892578125,0.0208740234375,0.0838623046875,0.75592041015625,0.078125,0.0703125,-0.1953125,0.029296875,-0.04296875,0.001953125
2026-09-02T19:12:16.215513,0.64892578125,0.0208740234375,0.0838623046875,0.75592041015625,0.078125,0.0703125,-0.1953125,0.029296875,-0.04296875,0.001953125
2026-09-02T19:12:16.315679,0.64892578125,0.0208740234375,0.0838623046875,0.75592041015625,0.078125,0.0703125,-0.1953125,0.029296875,-0.04296875,0.001953125
2026-09-02T19:12:16.415735,0.64892578125,0.0208740234375,0.0838623046875,0.75592041015625,0.078125,0.0703125,-0.1953125,0.029296875,-0.04296875,0.001953125
2026-09-02T19:12:16.515793,0.64892578125,0.0208740234375,0.0838623046875,0.75592041015625,0.078125,0.0703125,-0.1953125,0.029296875,-0.04296875,0.001953125
2026-09-02T19:12:16.615989,0.64892578125,0.0208740234375,0.0838623046875,0.75592041015625,0.078125,0.0703125,-0.1953125,0.029296875,-0.04296875,0.001953125
2026-09-02T19:12:16.716081,0.64892578125,0.0208740234375,0.0838623046875,0.75592041015625,0.078125,0.0703125,-0.1953125,0.029296875,-0.04296875,0.001953125
2026-09-02T19:12:16.816075,0.64892578125,0.0208740234375,0.0838623046875,0.75592041015625,0.078125,0.0703125,-0.1953125,0.029296875,-0.04296875,0.001953125
2026-09-02T19:12:16.916252,0.64892578125,0.0208740234375,0.0838623046875,0.75592041015625,0.078125,0.0703125,-0.1953125,0.029296875,-0.04296875,0.001953125
2026-09-02T19:12:17.016330,0.64892578125,0.0208740234375,0.0838623046875,0.75592041015625,0.078125,0.0703125,-0.1953125,0.029296875,-0.04296875,0.001953125
2026-09-02T19:12:17.116742,0.64892578125,0.0208740234375,0.0838623046875,0.75592041015625,0.078125,0.0703125,-0.1953125,0.029296875,-0.04296875,0.001953125
2026-09-02T19:12:17.216484,0.64892578125,0.0208740234375,0.0838623046875,0.75592041015625,0.078125,0.0703125,-0.1953125,0.029296875,-0.04296875,0.001953125
2026-09-02T19:12:17.316617,0.64892578125,0.0208740234375,0.0838623046875,0.75592041015625,0.078125,0.0703125,-0.1953125,0.029296875,-0.04296875,0.001953125
2026-09-02T19:12:17.416756,0.64892578125,0.0208740234375,0.0838623046875,0.75592041015625,0.078125,0.0703125,-0.1953125,0.029296875,-0.04296875,0.001953125
2026-09-02T19:12:17.516819,0.64892578125,0.0208740234375,0.0838623046875,0.75592041015625,0.078125,0.0703125,-0.1953125,0.029296875,-0.04296875,0.001953125
2026-09-02T19:12:17.617032,0.64892578125,0.0208740234375,0.0838623046875,0.75592041015625,0.078125,0.0703125,-0.1953125,0.029296875,-0.04296875,0.001953125
2026-09-02T19:12:17.717041,0.64892578125,0.0208740234375,0.0838623046875,0.75592041015625,0.078125,0.0703125,-0.1953125,0.029296875,-0.04296875,0.001953125
2026-09-02T19:12:17.817068,0.64892578125,0.0208740234375,0.0838623046875,0.75592041015625,0.078125,0.0703125,-0.1953125,0.029296875,-0.04296875,0.001953125
2026-09-02T19:12:17.917223,0.64892578125,0.0208740234375,0.0838623046875,0.75592041015625,0.078125,0.0703125,-0.1953125,0.029296875,-0.04296875,0.001953125
2026-09-02T19:12:18.017361,0.64892578125,0.0208740234375,0.0838623046875,0.75592041015625,0.078125,0.0703125,-0.1953125,0.029296875,-0.04296875,0.001953125
2026-09-02T19:12:18.117521,0.64892578125,0.0208740234375,0.0838623046875,0.75592041015625,0.078125,0.0703125,-0.1953125,0.029296875,-0.04296875,0.001953125
2026-09-02T19:12:18.217495,0.64892578125,0.0208740234375,0.0838623046875,0.75592041015625,0.078125,0.0703125,-0.1953125,0.029296875,-0.04296875,0.001953125
2026-09-02T19:12:18.317663,0.64892578125,0.0208740234375,0.0838623046875,0.75592041015625,0.078125,0.0703125,-0.1953125,0.029296875,-0.04296875,0.001953125
2026-09-02T19:12:18.422061,0.64892578125,0.0208740234375,0.0838623046875,0.75592041015625,0.078125,0.0703125,-0.1953125,0.029296875,-0.04296875,0.001953125
2026-09-02T19:12:18.522570,0.64892578125,0.0208740234375,0.0838623046875,0.75592041015625,0.078125,0.0703125,-0.1953125,0.029296875,-0.04296875,0.001953125
2026-09-02T19:12:18.621409,0.64892578125,0.0208740234375,0.0838623046875,0.75592041015625,0.078125,0.0703125,-0.1953125,0.029296875,-0.04296875,0.001953125
2026-09-02T19:12:18.722416,0.64892578125,0.0208740234375,0.0838623046875,0.75592041015625,0.078125,0.0703125,-0.1953125,0.029296875,-0.04296875,0.001953125
2026-09-02T19:12:18.821923,0.64892578125,0.0208740234375,0.0838623046875,0.75592041015625,0.078125,0.0703125,-0.1953125,0.029296875,-0.04296875,0.001953125
2026-09-02T19:12:18.926403,0.64892578125,0.0208740234375,0.0838623046875,0.75592041015625,0.078125,0.0703125,-0.1953125,0.029296875,-0.04296875,0.001953125
2026-09-02T19:12:19.020999,0.64892578125,0.0208740234375,0.0838623046875,0.75592041015625,0.078125,0.0703125,-0.1953125,0.029296875,-0.04296875,0.001953125
2026-09-02T19:12:19.121245,0.64892578125,0.0208740234375,0.0838623046875,0.75592041015625,0.078125,0.0703125,-0.1953125,0.029296875,-0.04296875,0.001953125
2026-09-02T19:12:19.222416,0.64892578125,0.0208740234375,0.0838623046875,0.75592041015625,0.078125,0.0703125,-0.1953125,0.029296875,-0.04296875,0.001953125
2026-09-02T19:12:19.322274,0.64892578125,0.0208740234375,0.0838623046875,0.75592041015625,0.078125,0.0703125,-0.1953125,0.029296875,-0.04296875,0.001953125
2026-09-02T19:12:19.421422,0.64892578125,0.0208740234375,0.0838623046875,0.75592041015625,0.078125,0.0703125,-0.1953125,0.029296875,-0.04296875,0.001953125
2026-09-02T19:12:19.521556,0.64892578125,0.0208740234375,0.0838623046875,0.75592041015625,0.078125,0.0703125,-0.1953125,0.029296875,-0.04296875,0.001953125
2026-09-02T19:12:19.621635,0.64892578125,0.0208740234375,0.0838623046875,0.75592041015625,0.078125,0.0703125,-0.1953125,0.029296875,-0.04296875,0.001953125
2026-09-02T19:12:19.721680,0.64892578125,0.0208740234375,0.0838623046875,0.75592041015625,0.078125,0.0703125,-0.1953125,0.029296875,-0.04296875,0.001953125
2026-09-02T19:12:19.821762,0.64892578125,0.0208740234375,0.0838623046875,0.75592041015625,0.078125,0.0703125,-0.1953125,0.029296875,-0.04296875,0.001953125
2026-09-02T19:12:19.922004,0.64892578125,0.0208740234375,0.0838623046875,0.75592041015625,0.078125,0.0703125,-0.1953125,0.029296875,-0.04296875,0.001953125
2026-09-02T19:12:20.021979,0.64892578125,0.0208740234375,0.0838623046875,0.75592041015625,0.078125,0.0703125,-0.1953125,0.029296875,-0.04296875,0.001953125
2026-09-02T19:12:20.122254,0.64892578125,0.0208740234375,0.0838623046875,0.75592041015625,0.078125,0.0703125,-0.1953125,0.029296875,-0.04296875,0.001953125
2026-09-02T19:12:20.222390,0.64892578125,0.0208740234375,0.0838623046875,0.75592041015625,0.078125,0.0703125,-0.1953125,0.029296875,-0.04296875,0.001953125
2026-09-02T19:12:20.322671,0.64892578125,0.0208740234375,0.0838623046875,0.75592041015625,0.078125,0.0703125,-0.1953125,0.029296875,-0.04296875,0.001953125
2026-09-02T19:12:20.423005,0.64892578125,0.0208740234375,0.0838623046875,0.75592041015625,0.078125,0.0703125,-0.1953125,0.029296875,-0.04296875,0.001953125
2026-09-02T19:12:20.523869,0.64892578125,0.0208740234375,0.0838623046875,0.75592041015625,0.078125,0.0703125,-0.1953125,0.029296875,-0.04296875,0.001953125
2026-09-02T19:12:20.623234,0.64892578125,0.0208740234375,0.0838623046875,0.75592041015625,0.078125,0.0703125,-0.1953125,0.029296875,-0.04296875,0.001953125
2026-09-02T19:12:20.723514,0.64892578125,0.0208740234375,0.0838623046875,0.75592041015625,0.078125,0.0703125,-0.1953125,0.029296875,-0.04296875,0.001953125
2026-09-02T19:12:20.823906,0.64892578125,0.0208740234375,0.0838623046875,0.75592041015625,0.078125,0.0703125,-0.1953125,0.029296875,-0.04296875,0.001953125
2026-09-02T19:12:20.923889,0.64892578125,0.0208740234375,0.0838623046875,0.75592041015625,0.078125,0.0703125,-0.1953125,0.029296875,-0.04296875,0.001953125
2026-09-02T19:12:21.024392,0.64892578125,0.0208740234375,0.0838623046875,0.75592041015625,0.078125,0.0703125,-0.1953125,0.029296875,-0.04296875,0.001953125
2026-09-02T19:12:21.124209,0.64892578125,0.0208740234375,0.0838623046875,0.75592041015625,0.078125,0.0703125,-0.1953125,0.029296875,-0.04296875,0.001953125
2026-09-02T19:12:21.225200,0.64892578125,0.0208740234375,0.0838623046875,0.75592041015625,0.078125,0.0703125,-0.1953125,0.029296875,-0.04296875,0.001953125
2026-09-02T19:12:21.324142,0.64892578125,0.0208740234375,0.0838623046875,0.75592041015625,0.078125,0.0703125,-0.1953125,0.029296875,-0.04296875,0.001953125
2026-09-02T19:12:21.424122,0.64892578125,0.0208740234375,0.0838623046875,0.75592041015625,0.078125,0.0703125,-0.1953125,0.029296875,-0.04296875,0.001953125
2026-09-02T19:12:21.524358,0.64892578125,0.0208740234375,0.0838623046875,0.75592041015625,0.078125,0.0703125,-0.1953125,0.029296875,-0.04296875,0.001953125
2026-09-02T19:12:21.624402,0.64892578125,0.0208740234375,0.0838623046875,0.75592041015625,0.078125,0.0703125,-0.1953125,0.029296875,-0.04296875,0.001953125
2026-09-02T19:12:21.724400,0.64892578125,0.0208740234375,0.0838623046875,0.75592041015625,0.078125,0.0703125,-0.1953125,0.029296875,-0.04296875,0.001953125
2026-09-02T19:12:21.824753,0.64892578125,0.0208740234375,0.0838623046875,0.75592041015625,0.078125,0.0703125,-0.1953125,0.029296875,-0.04296875,0.001953125
2026-09-02T19:12:21.924623,0.64892578125,0.0208740234375,0.0838623046875,0.75592041015625,0.078125,0.0703125,-0.1953125,0.029296875,-0.04296875,0.001953125
2026-09-02T19:12:22.024902,0.64892578125,0.0208740234375,0.0838623046875,0.75592041015625,0.078125,0.0703125,-0.1953125,0.029296875,-0.04296875,0.001953125
2026-09-02T19:12:22.124869,0.64892578125,0.0208740234375,0.0838623046875,0.75592041015625,0.078125,0.0703125,-0.1953125,0.029296875,-0.04296875,0.001953125
2026-09-02T19:12:22.224951,0.64892578125,0.0208740234375,0.0838623046875,0.75592041015625,0.078125,0.0703125,-0.1953125,0.029296875,-0.04296875,0.001953125
2026-09-02T19:12:22.325314,0.64892578125,0.0208740234375,0.0838623046875,0.75592041015625,0.078125,0.0703125,-0.1953125,0.029296875,-0.04296875,0.001953125
2026-09-02T19:12:22.425158,0.64892578125,0.0208740234375,0.0838623046875,0.75592041015625,0.078125,0.0703125,-0.1953125,0.029296875,-0.04296875,0.001953125
2026-09-02T19:12:22.525284,0.64892578125,0.0208740234375,0.0838623046875,0.75592041015625,0.078125,0.0703125,-0.1953125,0.029296875,-0.04296875,0.001953125
2026-09-02T19:12:22.625521,0.64892578125,0.0208740234375,0.0838623046875,0.75592041015625,0.078125,0.0703125,-0.1953125,0.029296875,-0.04296875,0.001953125
2026-09-02T19:12:22.725538,0.64892578125,0.0208740234375,0.0838623046875,0.75592041015625,0.078125,0.0703125,-0.1953125,0.029296875,-0.04296875,0.001953125
2026-09-02T19:12:22.825748,0.64892578125,0.0208740234375,0.0838623046875,0.75592041015625,0.078125,0.0703125,-0.1953125,0.029296875,-0.04296875,0.001953125
2026-09-02T19:12:22.925644,0.64892578125,0.0208740234375,0.0838623046875,0.75592041015625,0.078125,0.0703125,-0.1953125,0.029296875,-0.04296875,0.001953125
2026-09-02T19:12:23.025771,0.64892578125,0.0208740234375,0.0838623046875,0.75592041015625,0.078125,0.0703125,-0.1953125,0.029296875,-0.04296875,0.001953125
2026-09-02T19:12:23.126057,0.64892578125,0.0208740234375,0.0838623046875,0.75592041015625,0.078125,0.0703125,-0.1953125,0.029296875,-0.04296875,0.001953125
2026-09-02T19:12:23.225983,0.64892578125,0.0208740234375,0.0838623046875,0.75592041015625,0.078125,0.0703125,-0.1953125,0.029296875,-0.04296875,0.001953125
2026-09-02T19:12:23.326132,0.64892578125,0.0208740234375,0.0838623046875,0.75592041015625,0.078125,0.0703125,-0.1953125,0.029296875,-0.04296875,0.001953125
2026-09-02T19:12:23.426401,0.64892578125,0.0208740234375,0.0838623046875,0.75592041015625,0.078125,0.0703125,-0.1953125,0.029296875,-0.04296875,0.001953125
2026-09-02T19:12:23.526307,0.64892578125,0.0208740234375,0.0838623046875,0.75592041015625,0.078125,0.0703125,-0.1953125,0.029296875,-0.04296875,0.001953125
2026-09-02T19:12:23.626414,0.64892578125,0.0208740234375,0.0838623046875,0.75592041015625,0.078125,0.0703125,-0.1953125,0.029296875,-0.04296875,0.001953125
2026-09-02T19:12:23.726640,0.64892578125,0.0208740234375,0.0838623046875,0.75592041015625,0.078125,0.0703125,-0.1953125,0.029296875,-0.04296875,0.001953125
2026-09-02T19:12:23.826680,0.64892578125,0.0208740234375,0.0838623046875,0.75592041015625,0.078125,0.0703125,-0.1953125,0.029296875,-0.04296875,0.001953125
2026-09-02T19:12:23.926897,0.64892578125,0.0208740234375,0.0838623046875,0.75592041015625,0.078125,0.0703125,-0.1953125,0.029296875,-0.04296875,0.001953125
2026-09-02T19:12:24.027147,0.64892578125,0.0208740234375,0.0838623046875,0.75592041015625,0.078125,0.0703125,-0.1953125,0.029296875,-0.04296875,0.001953125
2026-09-02T19:12:24.127008,0.64892578125,0.0208740234375,0.0838623046875,0.75592041015625,0.078125,0.0703125,-0.1953125,0.029296875,-0.04296875,0.001953125
2026-09-02T19:12:24.227148,0.64892578125,0.0208740234375,0.0838623046875,0.75592041015625,0.078125,0.0703125,-0.1953125,0.029296875,-0.04296875,0.001953125
2026-09-02T19:12:24.326825,0.64892578125,0.0208740234375,0.0838623046875,0.75592041015625,0.078125,0.0703125,-0.1953125,0.029296875,-0.04296875,0.001953125
2026-09-02T19:12:24.427816,0.64892578125,0.0208740234375,0.0838623046875,0.75592041015625,0.078125,0.0703125,-0.1953125,0.029296875,-0.04296875,0.001953125
2026-09-02T19:12:24.527448,0.64892578125,0.0208740234375,0.0838623046875,0.75592041015625,0.078125,0.0703125,-0.1953125,0.029296875,-0.04296875,0.001953125
2026-09-02T19:12:24.627573,0.64892578125,0.0208740234375,0.0838623046875,0.75592041015625,0.078125,0.0703125,-0.1953125,0.029296875,-0.04296875,0.001953125
2026-09-02T19:12:24.727864,0.64892578125,0.0208740234375,0.0838623046875,0.75592041015625,0.078125,0.0703125,-0.1953125,0.029296875,-0.04296875,0.001953125
2026-09-02T19:12:24.827374,0.64892578125,0.0208740234375,0.0838623046875,0.75592041015625,0.078125,0.0703125,-0.1953125,0.029296875,-0.04296875,0.001953125
2026-09-02T19:12:24.927895,0.64892578125,0.0208740234375,0.0838623046875,0.75592041015625,0.078125,0.0703125,-0.1953125,0.029296875,-0.04296875,0.001953125
2026-09-02T19:12:25.028084,0.64892578125,0.0208740234375,0.0838623046875,0.75592041015625,0.078125,0.0703125,-0.1953125,0.029296875,-0.04296875,0.001953125
2026-09-02T19:12:25.128360,0.64892578125,0.0208740234375,0.0838623046875,0.75592041015625,0.078125,0.0703125,-0.1953125,0.029296875,-0.04296875,0.001953125
2026-09-02T19:12:25.228243,0.64892578125,0.0208740234375,0.0838623046875,0.75592041015625,0.078125,0.0703125,-0.1953125,0.029296875,-0.04296875,0.001953125
2026-09-02T19:12:25.328246,0.64892578125,0.0208740234375,0.0838623046875,0.75592041015625,0.078125,0.0703125,-0.1953125,0.029296875,-0.04296875,0.001953125
2026-09-02T19:12:25.428620,0.64892578125,0.0208740234375,0.0838623046875,0.75592041015625,0.078125,0.0703125,-0.1953125,0.029296875,-0.04296875,0.001953125
2026-09-02T19:12:25.528571,0.64892578125,0.0208740234375,0.0838623046875,0.75592041015625,0.078125,0.0703125,-0.1953125,0.029296875,-0.04296875,0.001953125
2026-09-02T19:12:25.628763,0.64892578125,0.0208740234375,0.0838623046875,0.75592041015625,0.078125,0.0703125,-0.1953125,0.029296875,-0.04296875,0.001953125
2026-09-02T19:12:25.728902,0.64892578125,0.0208740234375,0.0838623046875,0.75592041015625,0.078125,0.0703125,-0.1953125,0.029296875,-0.04296875,0.001953125
2026-09-02T19:12:25.828495,0.64892578125,0.0208740234375,0.0838623046875,0.75592041015625,0.078125,0.0703125,-0.1953125,0.029296875,-0.04296875,0.001953125
2026-09-02T19:12:25.929219,0.64892578125,0.0208740234375,0.0838623046875,0.75592041015625,0.078125,0.0703125,-0.1953125,0.029296875,-0.04296875,0.001953125
2026-09-02T19:12:26.029167,0.64892578125,0.0208740234375,0.0838623046875,0.75592041015625,0.078125,0.0703125,-0.1953125,0.029296875,-0.04296875,0.001953125
2026-09-02T19:12:26.129287,0.64892578125,0.0208740234375,0.0838623046875,0.75592041015625,0.078125,0.0703125,-0.1953125,0.029296875,-0.04296875,0.001953125
2026-09-02T19:12:26.229679,0.64892578125,0.0208740234375,0.0838623046875,0.75592041015625,0.078125,0.0703125,-0.1953125,0.029296875,-0.04296875,0.001953125
2026-09-02T19:12:26.329620,0.64892578125,0.0208740234375,0.0838623046875,0.75592041015625,0.078125,0.0703125,-0.1953125,0.029296875,-0.04296875,0.001953125
2026-09-02T19:12:26.429824,0.64892578125,0.0208740234375,0.0838623046875,0.75592041015625,0.078125,0.0703125,-0.1953125,0.029296875,-0.04296875,0.001953125
2026-09-02T19:12:26.529788,0.64892578125,0.0208740234375,0.0838623046875,0.75592041015625,0.078125,0.0703125,-0.1953125,0.029296875,-0.04296875,0.001953125
2026-09-02T19:12:26.629902,0.64892578125,0.0208740234375,0.0838623046875,0.75592041015625,0.078125,0.0703125,-0.1953125,0.029296875,-0.04296875,0.001953125
2026-09-02T19:12:26.730185,0.64892578125,0.0208740234375,0.0838623046875,0.75592041015625,0.078125,0.0703125,-0.1953125,0.029296875,-0.04296875,0.001953125
2026-09-02T19:12:26.829660,0.64892578125,0.0208740234375,0.0838623046875,0.75592041015625,0.078125,0.0703125,-0.1953125,0.029296875,-0.04296875,0.001953125
2026-09-02T19:12:26.930306,0.64892578125,0.0208740234375,0.0838623046875,0.75592041015625,0.078125,0.0703125,-0.1953125,0.029296875,-0.04296875,0.001953125
2026-09-02T19:12:27.030554,0.64892578125,0.0208740234375,0.0838623046875,0.75592041015625,0.078125,0.0703125,-0.1953125,0.029296875,-0.04296875,0.001953125
2026-09-02T19:12:27.130498,0.64892578125,0.0208740234375,0.0838623046875,0.75592041015625,0.078125,0.0703125,-0.1953125,0.029296875,-0.04296875,0.001953125
2026-09-02T19:12:27.230792,0.64892578125,0.0208740234375,0.0838623046875,0.75592041015625,0.078125,0.0703125,-0.1953125,0.029296875,-0.04296875,0.001953125
2026-09-02T19:12:27.330631,0.64892578125,0.0208740234375,0.0838623046875,0.75592041015625,0.078125,0.0703125,-0.1953125,0.029296875,-0.04296875,0.001953125
2026-09-02T19:12:27.430786,0.64892578125,0.0208740234375,0.0838623046875,0.75592041015625,0.078125,0.0703125,-0.1953125,0.029296875,-0.04296875,0.001953125
2026-09-02T19:12:27.531477,0.64892578125,0.0208740234375,0.0838623046875,0.75592041015625,0.078125,0.0703125,-0.1953125,0.029296875,-0.04296875,0.001953125
2026-09-02T19:12:27.631092,0.64892578125,0.0208740234375,0.0838623046875,0.75592041015625,0.078125,0.0703125,-0.1953125,0.029296875,-0.04296875,0.001953125
2026-09-02T19:12:27.731109,0.64892578125,0.0208740234375,0.0838623046875,0.75592041015625,0.078125,0.0703125,-0.1953125,0.029296875,-0.04296875,0.001953125
2026-09-02T19:12:27.831179,0.64892578125,0.0208740234375,0.0838623046875,0.75592041015625,0.078125,0.0703125,-0.1953125,0.029296875,-0.04296875,0.001953125
2026-09-02T19:12:27.931444,0.64892578125,0.0208740234375,0.0838623046875,0.75592041015625,0.078125,0.0703125,-0.1953125,0.029296875,-0.04296875,0.001953125
2026-09-02T19:12:28.031372,0.64892578125,0.0208740234375,0.0838623046875,0.75592041015625,0.078125,0.0703125,-0.1953125,0.029296875,-0.04296875,0.001953125
2026-09-02T19:12:28.131733,0.64892578125,0.0208740234375,0.0838623046875,0.75592041015625,0.078125,0.0703125,-0.1953125,0.029296875,-0.04296875,0.001953125
2026-09-02T19:12:28.231558,0.64892578125,0.0208740234375,0.0838623046875,0.75592041015625,0.078125,0.0703125,-0.1953125,0.029296875,-0.04296875,0.001953125
2026-09-02T19:12:28.331702,0.64892578125,0.0208740234375,0.0838623046875,0.75592041015625,0.078125,0.0703125,-0.1953125,0.029296875,-0.04296875,0.001953125
2026-09-02T19:12:28.431800,0.64892578125,0.0208740234375,0.0838623046875,0.75592041015625,0.078125,0.0703125,-0.1953125,0.029296875,-0.04296875,0.001953125
2026-09-02T19:12:28.531857,0.64892578125,0.0208740234375,0.0838623046875,0.75592041015625,0.078125,0.0703125,-0.1953125,0.029296875,-0.04296875,0.001953125
2026-09-02T19:12:28.631978,0.64892578125,0.0208740234375,0.0838623046875,0.75592041015625,0.078125,0.0703125,-0.1953125,0.029296875,-0.04296875,0.001953125
2026-09-02T19:12:28.732089,0.64892578125,0.0208740234375,0.0838623046875,0.75592041015625,0.078125,0.0703125,-0.1953125,0.029296875,-0.04296875,0.001953125
2026-09-02T19:12:28.832670,0.64892578125,0.0208740234375,0.0838623046875,0.75592041015625,0.078125,0.0703125,-0.1953125,0.029296875,-0.04296875,0.001953125
2026-09-02T19:12:28.932466,0.64892578125,0.0208740234375,0.0838623046875,0.75592041015625,0.078125,0.0703125,-0.1953125,0.029296875,-0.04296875,0.001953125
2026-09-02T19:12:29.032456,0.64892578125,0.0208740234375,0.0838623046875,0.75592041015625,0.078125,0.0703125,-0.1953125,0.029296875,-0.04296875,0.001953125
2026-09-02T19:12:29.132555,0.64892578125,0.0208740234375,0.0838623046875,0.75592041015625,0.078125,0.0703125,-0.1953125,0.029296875,-0.04296875,0.001953125
2026-09-02T19:12:29.232657,0.64892578125,0.0208740234375,0.0838623046875,0.75592041015625,0.078125,0.0703125,-0.1953125,0.029296875,-0.04296875,0.001953125
2026-09-02T19:12:29.332384,0.64892578125,0.0208740234375,0.0838623046875,0.75592041015625,0.078125,0.0703125,-0.1953125,0.029296875,-0.04296875,0.001953125
2026-09-02T19:12:29.432849,0.64892578125,0.0208740234375,0.0838623046875,0.75592041015625,0.078125,0.0703125,-0.1953125,0.029296875,-0.04296875,0.001953125
2026-09-02T19:12:29.533110,0.64892578125,0.0208740234375,0.0838623046875,0.75592041015625,0.078125,0.0703125,-0.1953125,0.029296875,-0.04296875,0.001953125
2026-09-02T19:12:29.633046,0.64892578125,0.0208740234375,0.0838623046875,0.75592041015625,0.078125,0.0703125,-0.1953125,0.029296875,-0.04296875,0.001953125
2026-09-02T19:12:29.733201,0.64892578125,0.0208740234375,0.0838623046875,0.75592041015625,0.078125,0.0703125,-0.1953125,0.029296875,-0.04296875,0.001953125
2026-09-02T19:12:29.833261,0.64892578125,0.0208740234375,0.0838623046875,0.75592041015625,0.078125,0.0703125,-0.1953125,0.029296875,-0.04296875,0.001953125
2026-09-02T19:12:29.933459,0.64892578125,0.0208740234375,0.0838623046875,0.75592041015625,0.078125,0.0703125,-0.1953125,0.029296875,-0.04296875,0.001953125
2026-09-02T19:12:30.033505,0.64892578125,0.0208740234375,0.0838623046875,0.75592041015625,0.078125,0.0703125,-0.1953125,0.029296875,-0.04296875,0.001953125
2026-09-02T19:12:30.133578,0.64892578125,0.0208740234375,0.0838623046875,0.75592041015625,0.078125,0.0703125,-0.1953125,0.029296875,-0.04296875,0.001953125
2026-09-02T19:12:30.233719,0.64892578125,0.0208740234375,0.0838623046875,0.75592041015625,0.078125,0.0703125,-0.1953125,0.029296875,-0.04296875,0.001953125
2026-09-02T19:12:30.333410,0.64892578125,0.0208740234375,0.0838623046875,0.75592041015625,0.078125,0.0703125,-0.1953125,0.029296875,-0.04296875,0.001953125
2026-09-02T19:12:30.433890,0.64892578125,0.0208740234375,0.0838623046875,0.75592041015625,0.078125,0.0703125,-0.1953125,0.029296875,-0.04296875,0.001953125
2026-09-02T19:12:30.534017,0.64892578125,0.0208740234375,0.0838623046875,0.75592041015625,0.078125,0.0703125,-0.1953125,0.029296875,-0.04296875,0.001953125
2026-09-02T19:12:30.634135,0.64892578125,0.0208740234375,0.0838623046875,0.75592041015625,0.078125,0.0703125,-0.1953125,0.029296875,-0.04296875,0.001953125
2026-09-02T19:12:30.734277,0.64892578125,0.0208740234375,0.0838623046875,0.75592041015625,0.078125,0.0703125,-0.1953125,0.029296875,-0.04296875,0.001953125
2026-09-02T19:12:30.833896,0.64892578125,0.0208740234375,0.0838623046875,0.75592041015625,0.078125,0.0703125,-0.1953125,0.029296875,-0.04296875,0.001953125
2026-09-02T19:12:30.934366,0.64892578125,0.0208740234375,0.0838623046875,0.75592041015625,0.078125,0.0703125,-0.1953125,0.029296875,-0.04296875,0.001953125
2026-09-02T19:12:31.034668,0.64892578125,0.0208740234375,0.0838623046875,0.75592041015625,0.078125,0.0703125,-0.1953125,0.029296875,-0.04296875,0.001953125
2026-09-02T19:12:31.134603,0.64892578125,0.0208740234375,0.0838623046875,0.75592041015625,0.078125,0.0703125,-0.1953125,0.029296875,-0.04296875,0.001953125
2026-09-02T19:12:31.234810,0.64892578125,0.0208740234375,0.0838623046875,0.75592041015625,0.078125,0.0703125,-0.1953125,0.029296875,-0.04296875,0.001953125
2026-09-02T19:12:31.334731,0.64892578125,0.0208740234375,0.0838623046875,0.75592041015625,0.078125,0.0703125,-0.1953125,0.029296875,-0.04296875,0.001953125
2026-09-02T19:12:31.435014,0.64892578125,0.0208740234375,0.0838623046875,0.75592041015625,0.078125,0.0703125,-0.1953125,0.029296875,-0.04296875,0.001953125
2026-09-02T19:12:31.535010,0.64892578125,0.0208740234375,0.0838623046875,0.75592041015625,0.078125,0.0703125,-0.1953125,0.029296875,-0.04296875,0.001953125
2026-09-02T19:12:31.635083,0.64892578125,0.0208740234375,0.0838623046875,0.75592041015625,0.078125,0.0703125,-0.1953125,0.029296875,-0.04296875,0.001953125
2026-09-02T19:12:31.735473,0.64892578125,0.0208740234375,0.0838623046875,0.75592041015625,0.078125,0.0703125,-0.1953125,0.029296875,-0.04296875,0.001953125
2026-09-02T19:12:31.834766,0.64892578125,0.0208740234375,0.0838623046875,0.75592041015625,0.078125,0.0703125,-0.1953125,0.029296875,-0.04296875,0.001953125
2026-09-02T19:12:31.935351,0.64892578125,0.0208740234375,0.0838623046875,0.75592041015625,0.078125,0.0703125,-0.1953125,0.029296875,-0.04296875,0.001953125
2026-09-02T19:12:32.035513,0.64892578125,0.0208740234375,0.0838623046875,0.75592041015625,0.078125,0.0703125,-0.1953125,0.029296875,-0.04296875,0.001953125
2026-09-02T19:12:32.135535,0.64892578125,0.0208740234375,0.0838623046875,0.75592041015625,0.078125,0.0703125,-0.1953125,0.029296875,-0.04296875,0.001953125
2026-09-02T19:12:32.235699,0.64892578125,0.0208740234375,0.0838623046875,0.75592041015625,0.078125,0.0703125,-0.1953125,0.029296875,-0.04296875,0.001953125
2026-09-02T19:12:32.335341,0.64892578125,0.0208740234375,0.0838623046875,0.75592041015625,0.078125,0.0703125,-0.1953125,0.029296875,-0.04296875,0.001953125
2026-09-02T19:12:32.436031,0.64892578125,0.0208740234375,0.0838623046875,0.75592041015625,0.078125,0.0703125,-0.1953125,0.029296875,-0.04296875,0.001953125
2026-09-02T19:12:32.536007,0.64892578125,0.0208740234375,0.0838623046875,0.75592041015625,0.078125,0.0703125,-0.1953125,0.029296875,-0.04296875,0.001953125
2026-09-02T19:12:32.636177,0.64892578125,0.0208740234375,0.0838623046875,0.75592041015625,0.078125,0.0703125,-0.1953125,0.029296875,-0.04296875,0.001953125
2026-09-02T19:12:32.736611,0.64892578125,0.0208740234375,0.0838623046875,0.75592041015625,0.078125,0.0703125,-0.1953125,0.029296875,-0.04296875,0.001953125
2026-09-02T19:12:32.836547,0.64892578125,0.0208740234375,0.0838623046875,0.75592041015625,0.078125,0.0703125,-0.1953125,0.029296875,-0.04296875,0.001953125
2026-09-02T19:12:32.936523,0.64892578125,0.0208740234375,0.0838623046875,0.75592041015625,0.078125,0.0703125,-0.1953125,0.029296875,-0.04296875,0.001953125
2026-09-02T19:12:33.036637,0.64892578125,0.0208740234375,0.0838623046875,0.75592041015625,0.078125,0.0703125,-0.1953125,0.029296875,-0.04296875,0.001953125
2026-09-02T19:12:33.136722,0.64892578125,0.0208740234375,0.0838623046875,0.75592041015625,0.078125,0.0703125,-0.1953125,0.029296875,-0.04296875,0.001953125
2026-09-02T19:12:33.236821,0.64892578125,0.0208740234375,0.0838623046875,0.75592041015625,0.078125,0.0703125,-0.1953125,0.029296875,-0.04296875,0.001953125
2026-09-02T19:12:33.337116,0.64892578125,0.0208740234375,0.0838623046875,0.75592041015625,0.078125,0.0703125,-0.1953125,0.029296875,-0.04296875,0.001953125
2026-09-02T19:12:33.437312,0.64892578125,0.0208740234375,0.0838623046875,0.75592041015625,0.078125,0.0703125,-0.1953125,0.029296875,-0.04296875,0.001953125
2026-09-02T19:12:33.537561,0.64892578125,0.0208740234375,0.0838623046875,0.75592041015625,0.078125,0.0703125,-0.1953125,0.029296875,-0.04296875,0.001953125
2026-09-02T19:12:33.638537,0.64892578125,0.0208740234375,0.0838623046875,0.75592041015625,0.078125,0.0703125,-0.1953125,0.029296875,-0.04296875,0.001953125
2026-09-02T19:12:33.738197,0.64892578125,0.0208740234375,0.0838623046875,0.75592041015625,0.078125,0.0703125,-0.1953125,0.029296875,-0.04296875,0.001953125
2026-09-02T19:12:33.837656,0.64892578125,0.0208740234375,0.0838623046875,0.75592041015625,0.078125,0.0703125,-0.1953125,0.029296875,-0.04296875,0.001953125
2026-09-02T19:12:33.938268,0.64892578125,0.0208740234375,0.0838623046875,0.75592041015625,0.078125,0.0703125,-0.1953125,0.029296875,-0.04296875,0.001953125
2026-09-02T19:12:34.037881,0.64892578125,0.0208740234375,0.0838623046875,0.75592041015625,0.078125,0.0703125,-0.1953125,0.029296875,-0.04296875,0.001953125
2026-09-02T19:12:34.138138,0.64892578125,0.0208740234375,0.0838623046875,0.75592041015625,0.078125,0.0703125,-0.1953125,0.029296875,-0.04296875,0.001953125
2026-09-02T19:12:34.238141,0.64892578125,0.0208740234375,0.0838623046875,0.75592041015625,0.078125,0.0703125,-0.1953125,0.029296875,-0.04296875,0.001953125
2026-09-02T19:12:34.338468,0.64892578125,0.0208740234375,0.0838623046875,0.75592041015625,0.078125,0.0703125,-0.1953125,0.029296875,-0.04296875,0.001953125
2026-09-02T19:12:34.438255,0.64892578125,0.0208740234375,0.0838623046875,0.75592041015625,0.078125,0.0703125,-0.1953125,0.029296875,-0.04296875,0.001953125
2026-09-02T19:12:34.538517,0.64892578125,0.0208740234375,0.0838623046875,0.75592041015625,0.078125,0.0703125,-0.1953125,0.029296875,-0.04296875,0.001953125
2026-09-02T19:12:34.638577,0.64892578125,0.0208740234375,0.0838623046875,0.75592041015625,0.078125,0.0703125,-0.1953125,0.029296875,-0.04296875,0.001953125
2026-09-02T19:12:34.738586,0.64892578125,0.0208740234375,0.0838623046875,0.75592041015625,0.078125,0.0703125,-0.1953125,0.029296875,-0.04296875,0.001953125
2026-09-02T19:12:34.838822,0.64892578125,0.0208740234375,0.0838623046875,0.75592041015625,0.078125,0.0703125,-0.1953125,0.029296875,-0.04296875,0.001953125
2026-09-02T19:12:34.938752,0.64892578125,0.0208740234375,0.0838623046875,0.75592041015625,0.078125,0.0703125,-0.1953125,0.029296875,-0.04296875,0.001953125
2026-09-02T19:12:35.038960,0.64892578125,0.0208740234375,0.0838623046875,0.75592041015625,0.078125,0.0703125,-0.1953125,0.029296875,-0.04296875,0.001953125
2026-09-02T19:12:35.138990,0.64892578125,0.0208740234375,0.0838623046875,0.75592041015625,0.078125,0.0703125,-0.1953125,0.029296875,-0.04296875,0.001953125
2026-09-02T19:12:35.239375,0.64892578125,0.0208740234375,0.0838623046875,0.75592041015625,0.078125,0.0703125,-0.1953125,0.029296875,-0.04296875,0.001953125
2026-09-02T19:12:35.340950,0.64892578125,0.0208740234375,0.0838623046875,0.75592041015625,0.078125,0.0703125,-0.1953125,0.029296875,-0.04296875,0.001953125
2026-09-02T19:12:35.441044,0.64892578125,0.0208740234375,0.0838623046875,0.75592041015625,0.078125,0.0703125,-0.1953125,0.029296875,-0.04296875,0.001953125
2026-09-02T19:12:35.540880,0.64892578125,0.0208740234375,0.0838623046875,0.75592041015625,0.078125,0.0703125,-0.1953125,0.029296875,-0.04296875,0.001953125
2026-09-02T19:12:35.642181,0.64892578125,0.0208740234375,0.0838623046875,0.75592041015625,0.078125,0.0703125,-0.1953125,0.029296875,-0.04296875,0.001953125
2026-09-02T19:12:35.742395,0.64892578125,0.0208740234375,0.0838623046875,0.75592041015625,0.078125,0.0703125,-0.1953125,0.029296875,-0.04296875,0.001953125
2026-09-02T19:12:35.840656,0.64892578125,0.0208740234375,0.0838623046875,0.75592041015625,0.078125,0.0703125,-0.1953125,0.029296875,-0.04296875,0.001953125
2026-09-02T19:12:35.940195,0.64892578125,0.0208740234375,0.0838623046875,0.75592041015625,0.078125,0.0703125,-0.1953125,0.029296875,-0.04296875,0.001953125
2026-09-02T19:12:36.040267,0.64892578125,0.0208740234375,0.0838623046875,0.75592041015625,0.078125,0.0703125,-0.1953125,0.029296875,-0.04296875,0.001953125
2026-09-02T19:12:36.140375,0.64892578125,0.0208740234375,0.0838623046875,0.75592041015625,0.078125,0.0703125,-0.1953125,0.029296875,-0.04296875,0.001953125
2026-09-02T19:12:36.240624,0.64892578125,0.0208740234375,0.0838623046875,0.75592041015625,0.078125,0.0703125,-0.1953125,0.029296875,-0.04296875,0.001953125
2026-09-02T19:12:36.340581,0.64892578125,0.0208740234375,0.0838623046875,0.75592041015625,0.078125,0.0703125,-0.1953125,0.029296875,-0.04296875,0.001953125
2026-09-02T19:12:36.440315,0.64892578125,0.0208740234375,0.0838623046875,0.75592041015625,0.078125,0.0703125,-0.1953125,0.029296875,-0.04296875,0.001953125
2026-09-02T19:12:36.541236,0.64892578125,0.0208740234375,0.0838623046875,0.75592041015625,0.078125,0.0703125,-0.1953125,0.029296875,-0.04296875,0.001953125
2026-09-02T19:12:36.641265,0.64892578125,0.0208740234375,0.0838623046875,0.75592041015625,0.078125,0.0703125,-0.1953125,0.029296875,-0.04296875,0.001953125
2026-09-02T19:12:36.741867,0.64892578125,0.0208740234375,0.0838623046875,0.75592041015625,0.078125,0.0703125,-0.1953125,0.029296875,-0.04296875,0.001953125
2026-09-02T19:12:36.841338,0.64892578125,0.0208740234375,0.0838623046875,0.75592041015625,0.078125,0.0703125,-0.1953125,0.029296875,-0.04296875,0.001953125
2026-09-02T19:12:36.941601,0.64892578125,0.0208740234375,0.0838623046875,0.75592041015625,0.078125,0.0703125,-0.1953125,0.029296875,-0.04296875,0.001953125
2026-09-02T19:12:37.042060,0.64892578125,0.0208740234375,0.0838623046875,0.75592041015625,0.078125,0.0703125,-0.1953125,0.029296875,-0.04296875,0.001953125
2026-09-02T19:12:37.142701,0.64892578125,0.0208740234375,0.0838623046875,0.75592041015625,0.078125,0.0703125,-0.1953125,0.029296875,-0.04296875,0.001953125
2026-09-02T19:12:37.241930,0.64892578125,0.0208740234375,0.0838623046875,0.75592041015625,0.078125,0.0703125,-0.1953125,0.029296875,-0.04296875,0.001953125
2026-09-02T19:12:37.341943,0.64892578125,0.0208740234375,0.0838623046875,0.75592041015625,0.078125,0.0703125,-0.1953125,0.029296875,-0.04296875,0.001953125
2026-09-02T19:12:37.442055,0.64892578125,0.0208740234375,0.0838623046875,0.75592041015625,0.078125,0.0703125,-0.1953125,0.029296875,-0.04296875,0.001953125
2026-09-02T19:12:37.542300,0.64892578125,0.0208740234375,0.0838623046875,0.75592041015625,0.078125,0.0703125,-0.1953125,0.029296875,-0.04296875,0.001953125
2026-09-02T19:12:37.642278,0.64892578125,0.0208740234375,0.0838623046875,0.75592041015625,0.078125,0.0703125,-0.1953125,0.029296875,-0.04296875,0.001953125
2026-09-02T19:12:37.742506,0.64892578125,0.0208740234375,0.0838623046875,0.75592041015625,0.078125,0.0703125,-0.1953125,0.029296875,-0.04296875,0.001953125
2026-09-02T19:12:37.841920,0.64892578125,0.0208740234375,0.0838623046875,0.75592041015625,0.078125,0.0703125,-0.1953125,0.029296875,-0.04296875,0.001953125
2026-09-02T19:12:37.942604,0.64892578125,0.0208740234375,0.0838623046875,0.75592041015625,0.078125,0.0703125,-0.1953125,0.029296875,-0.04296875,0.001953125
2026-09-02T19:12:38.042670,0.64892578125,0.0208740234375,0.0838623046875,0.75592041015625,0.078125,0.0703125,-0.1953125,0.029296875,-0.04296875,0.001953125
2026-09-02T19:12:38.142907,0.64892578125,0.0208740234375,0.0838623046875,0.75592041015625,0.078125,0.0703125,-0.1953125,0.029296875,-0.04296875,0.001953125
2026-09-02T19:12:38.242907,0.64892578125,0.0208740234375,0.0838623046875,0.75592041015625,0.078125,0.0703125,-0.1953125,0.029296875,-0.04296875,0.001953125
2026-09-02T19:12:38.342944,0.64892578125,0.0208740234375,0.0838623046875,0.75592041015625,0.078125,0.0703125,-0.1953125,0.029296875,-0.04296875,0.001953125
2026-09-02T19:12:38.443352,0.64892578125,0.0208740234375,0.0838623046875,0.75592041015625,0.078125,0.0703125,-0.1953125,0.029296875,-0.04296875,0.001953125
2026-09-02T19:12:38.543262,0.64892578125,0.0208740234375,0.0838623046875,0.75592041015625,0.078125,0.0703125,-0.1953125,0.029296875,-0.04296875,0.001953125
2026-09-02T19:12:38.643379,0.64892578125,0.0208740234375,0.0838623046875,0.75592041015625,0.078125,0.0703125,-0.1953125,0.029296875,-0.04296875,0.001953125
2026-09-02T19:12:38.743479,0.64892578125,0.0208740234375,0.0838623046875,0.75592041015625,0.078125,0.0703125,-0.1953125,0.029296875,-0.04296875,0.001953125
2026-09-02T19:12:38.843566,0.64892578125,0.0208740234375,0.0838623046875,0.75592041015625,0.078125,0.0703125,-0.1953125,0.029296875,-0.04296875,0.001953125
2026-09-02T19:12:38.943697,0.64892578125,0.0208740234375,0.0838623046875,0.75592041015625,0.078125,0.0703125,-0.1953125,0.029296875,-0.04296875,0.001953125
2026-09-02T19:12:39.043927,0.64892578125,0.0208740234375,0.0838623046875,0.75592041015625,0.078125,0.0703125,-0.1953125,0.029296875,-0.04296875,0.001953125
2026-09-02T19:12:39.143998,0.64892578125,0.0208740234375,0.0838623046875,0.75592041015625,0.078125,0.0703125,-0.1953125,0.029296875,-0.04296875,0.001953125
2026-09-02T19:12:39.244051,0.64892578125,0.0208740234375,0.0838623046875,0.75592041015625,0.078125,0.0703125,-0.1953125,0.029296875,-0.04296875,0.001953125
2026-09-02T19:12:39.344259,0.64892578125,0.0208740234375,0.0838623046875,0.75592041015625,0.078125,0.0703125,-0.1953125,0.029296875,-0.04296875,0.001953125
2026-09-02T19:12:39.444063,0.64892578125,0.0208740234375,0.0838623046875,0.75592041015625,0.078125,0.0703125,-0.1953125,0.029296875,-0.04296875,0.001953125
2026-09-02T19:12:39.544399,0.64892578125,0.0208740234375,0.0838623046875,0.75592041015625,0.078125,0.0703125,-0.1953125,0.029296875,-0.04296875,0.001953125
2026-09-02T19:12:39.644494,0.64892578125,0.0208740234375,0.0838623046875,0.75592041015625,0.078125,0.0703125,-0.1953125,0.029296875,-0.04296875,0.001953125
2026-09-02T19:12:39.744571,0.64892578125,0.0208740234375,0.0838623046875,0.75592041015625,0.078125,0.0703125,-0.1953125,0.029296875,-0.04296875,0.001953125
2026-09-02T19:12:39.844712,0.64892578125,0.0208740234375,0.0838623046875,0.75592041015625,0.078125,0.0703125,-0.1953125,0.029296875,-0.04296875,0.001953125
2026-09-02T19:12:39.944840,0.64892578125,0.0208740234375,0.0838623046875,0.75592041015625,0.078125,0.0703125,-0.1953125,0.029296875,-0.04296875,0.001953125
2026-09-02T19:12:40.045212,0.64892578125,0.0208740234375,0.0838623046875,0.75592041015625,0.078125,0.0703125,-0.1953125,0.029296875,-0.04296875,0.001953125
2026-09-02T19:12:40.145128,0.64892578125,0.0208740234375,0.0838623046875,0.75592041015625,0.078125,0.0703125,-0.1953125,0.029296875,-0.04296875,0.001953125
2026-09-02T19:12:40.245258,0.64892578125,0.0208740234375,0.0838623046875,0.75592041015625,0.078125,0.0703125,-0.1953125,0.029296875,-0.04296875,0.001953125
2026-09-02T19:12:40.345309,0.64892578125,0.0208740234375,0.0838623046875,0.75592041015625,0.078125,0.0703125,-0.1953125,0.029296875,-0.04296875,0.001953125
2026-09-02T19:12:40.445085,0.64892578125,0.0208740234375,0.0838623046875,0.75592041015625,0.078125,0.0703125,-0.1953125,0.029296875,-0.04296875,0.001953125
2026-09-02T19:12:40.545662,0.64892578125,0.0208740234375,0.0838623046875,0.75592041015625,0.078125,0.0703125,-0.1953125,0.029296875,-0.04296875,0.001953125
2026-09-02T19:12:40.645780,0.64892578125,0.0208740234375,0.0838623046875,0.75592041015625,0.078125,0.0703125,-0.1953125,0.029296875,-0.04296875,0.001953125
2026-09-02T19:12:40.745818,0.64892578125,0.0208740234375,0.0838623046875,0.75592041015625,0.078125,0.0703125,-0.1953125,0.029296875,-0.04296875,0.001953125
2026-09-02T19:12:40.845971,0.64892578125,0.0208740234375,0.0838623046875,0.75592041015625,0.078125,0.0703125,-0.1953125,0.029296875,-0.04296875,0.001953125
2026-09-02T19:12:40.946243,0.64892578125,0.0208740234375,0.0838623046875,0.75592041015625,0.078125,0.0703125,-0.1953125,0.029296875,-0.04296875,0.001953125
2026-09-02T19:12:41.046217,0.64892578125,0.0208740234375,0.0838623046875,0.75592041015625,0.078125,0.0703125,-0.1953125,0.029296875,-0.04296875,0.001953125
2026-09-02T19:12:41.146516,0.64892578125,0.0208740234375,0.0838623046875,0.75592041015625,0.078125,0.0703125,-0.1953125,0.029296875,-0.04296875,0.001953125
2026-09-02T19:12:41.246387,0.64892578125,0.0208740234375,0.0838623046875,0.75592041015625,0.078125,0.0703125,-0.1953125,0.029296875,-0.04296875,0.001953125
2026-09-02T19:12:41.346610,0.64892578125,0.0208740234375,0.0838623046875,0.75592041015625,0.078125,0.0703125,-0.1953125,0.029296875,-0.04296875,0.001953125
2026-09-02T19:12:41.445833,0.64892578125,0.0208740234375,0.0838623046875,0.75592041015625,0.078125,0.0703125,-0.1953125,0.029296875,-0.04296875,0.001953125
2026-09-02T19:12:41.546710,0.64892578125,0.0208740234375,0.0838623046875,0.75592041015625,0.078125,0.0703125,-0.1953125,0.029296875,-0.04296875,0.001953125
2026-09-02T19:12:41.647155,0.64892578125,0.0208740234375,0.0838623046875,0.75592041015625,0.078125,0.0703125,-0.1953125,0.029296875,-0.04296875,0.001953125
2026-09-02T19:12:41.747016,0.64892578125,0.0208740234375,0.0838623046875,0.75592041015625,0.078125,0.0703125,-0.1953125,0.029296875,-0.04296875,0.001953125
2026-09-02T19:12:41.847373,0.64892578125,0.0208740234375,0.0838623046875,0.75592041015625,0.078125,0.0703125,-0.1953125,0.029296875,-0.04296875,0.001953125
2026-09-02T19:12:41.947225,0.64892578125,0.0208740234375,0.0838623046875,0.75592041015625,0.078125,0.0703125,-0.1953125,0.029296875,-0.04296875,0.001953125
2026-09-02T19:12:42.047518,0.64892578125,0.0208740234375,0.0838623046875,0.75592041015625,0.078125,0.0703125,-0.1953125,0.029296875,-0.04296875,0.001953125
2026-09-02T19:12:42.147508,0.64892578125,0.0208740234375,0.0838623046875,0.75592041015625,0.078125,0.0703125,-0.1953125,0.029296875,-0.04296875,0.001953125
2026-09-02T19:12:42.247531,0.64892578125,0.0208740234375,0.0838623046875,0.75592041015625,0.078125,0.0703125,-0.1953125,0.029296875,-0.04296875,0.001953125
2026-09-02T19:12:42.347950,0.64892578125,0.0208740234375,0.0838623046875,0.75592041015625,0.078125,0.0703125,-0.1953125,0.029296875,-0.04296875,0.001953125
2026-09-02T19:12:42.447340,0.64892578125,0.0208740234375,0.0838623046875,0.75592041015625,0.078125,0.0703125,-0.1953125,0.029296875,-0.04296875,0.001953125
2026-09-02T19:12:42.547858,0.64892578125,0.0208740234375,0.0838623046875,0.75592041015625,0.078125,0.0703125,-0.1953125,0.029296875,-0.04296875,0.001953125
2026-09-02T19:12:42.648282,0.64892578125,0.0208740234375,0.0838623046875,0.75592041015625,0.078125,0.0703125,-0.1953125,0.029296875,-0.04296875,0.001953125
2026-09-02T19:12:42.748087,0.64892578125,0.0208740234375,0.0838623046875,0.75592041015625,0.078125,0.0703125,-0.1953125,0.029296875,-0.04296875,0.001953125
2026-09-02T19:12:42.848257,0.64892578125,0.0208740234375,0.0838623046875,0.75592041015625,0.078125,0.0703125,-0.1953125,0.029296875,-0.04296875,0.001953125
2026-09-02T19:12:42.947952,0.64892578125,0.0208740234375,0.0838623046875,0.75592041015625,0.078125,0.0703125,-0.1953125,0.029296875,-0.04296875,0.001953125
2026-09-02T19:12:43.048592,0.64892578125,0.0208740234375,0.0838623046875,0.75592041015625,0.078125,0.0703125,-0.1953125,0.029296875,-0.04296875,0.001953125
2026-09-02T19:12:43.148704,0.64892578125,0.0208740234375,0.0838623046875,0.75592041015625,0.078125,0.0703125,-0.1953125,0.029296875,-0.04296875,0.001953125
2026-09-02T19:12:43.248835,0.64892578125,0.0208740234375,0.0838623046875,0.75592041015625,0.078125,0.0703125,-0.1953125,0.029296875,-0.04296875,0.001953125
2026-09-02T19:12:43.349014,0.64892578125,0.0208740234375,0.0838623046875,0.75592041015625,0.078125,0.0703125,-0.1953125,0.029296875,-0.04296875,0.001953125
2026-09-02T19:12:43.449272,0.64892578125,0.0208740234375,0.0838623046875,0.75592041015625,0.078125,0.0703125,-0.1953125,0.029296875,-0.04296875,0.001953125
2026-09-02T19:12:43.549237,0.64892578125,0.0208740234375,0.0838623046875,0.75592041015625,0.078125,0.0703125,-0.1953125,0.029296875,-0.04296875,0.001953125
2026-09-02T19:12:43.649548,0.64892578125,0.0208740234375,0.0838623046875,0.75592041015625,0.078125,0.0703125,-0.1953125,0.029296875,-0.04296875,0.001953125
2026-09-02T19:12:43.749606,0.64892578125,0.0208740234375,0.0838623046875,0.75592041015625,0.078125,0.0703125,-0.1953125,0.029296875,-0.04296875,0.001953125
2026-09-02T19:12:43.849671,0.64892578125,0.0208740234375,0.0838623046875,0.75592041015625,0.078125,0.0703125,-0.1953125,0.029296875,-0.04296875,0.001953125
2026-09-02T19:12:43.949760,0.64892578125,0.0208740234375,0.0838623046875,0.75592041015625,0.078125,0.0703125,-0.1953125,0.029296875,-0.04296875,0.001953125
2026-09-02T19:12:44.050042,0.64892578125,0.0208740234375,0.0838623046875,0.75592041015625,0.078125,0.0703125,-0.1953125,0.029296875,-0.04296875,0.001953125
2026-09-02T19:12:44.149992,0.64892578125,0.0208740234375,0.0838623046875,0.75592041015625,0.078125,0.0703125,-0.1953125,0.029296875,-0.04296875,0.001953125
2026-09-02T19:12:44.250428,0.64892578125,0.0208740234375,0.0838623046875,0.75592041015625,0.078125,0.0703125,-0.1953125,0.029296875,-0.04296875,0.001953125
2026-09-02T19:12:44.350207,0.64892578125,0.0208740234375,0.0838623046875,0.75592041015625,0.078125,0.0703125,-0.1953125,0.029296875,-0.04296875,0.001953125
2026-09-02T19:12:44.450370,0.64892578125,0.0208740234375,0.0838623046875,0.75592041015625,0.078125,0.0703125,-0.1953125,0.029296875,-0.04296875,0.001953125
2026-09-02T19:12:44.550512,0.64892578125,0.0208740234375,0.0838623046875,0.75592041015625,0.078125,0.0703125,-0.1953125,0.029296875,-0.04296875,0.001953125
2026-09-02T19:12:44.650469,0.64892578125,0.0208740234375,0.0838623046875,0.75592041015625,0.078125,0.0703125,-0.1953125,0.029296875,-0.04296875,0.001953125
2026-09-02T19:12:44.750756,0.64892578125,0.0208740234375,0.0838623046875,0.75592041015625,0.078125,0.0703125,-0.1953125,0.029296875,-0.04296875,0.001953125
2026-09-02T19:12:44.850826,0.64892578125,0.0208740234375,0.0838623046875,0.75592041015625,0.078125,0.0703125,-0.1953125,0.029296875,-0.04296875,0.001953125
2026-09-02T19:12:44.950945,0.64892578125,0.0208740234375,0.0838623046875,0.75592041015625,0.078125,0.0703125,-0.1953125,0.029296875,-0.04296875,0.001953125
2026-09-02T19:12:45.051215,0.64892578125,0.0208740234375,0.0838623046875,0.75592041015625,0.078125,0.0703125,-0.1953125,0.029296875,-0.04296875,0.001953125
2026-09-02T19:12:45.151297,0.64892578125,0.0208740234375,0.0838623046875,0.75592041015625,0.078125,0.0703125,-0.1953125,0.029296875,-0.04296875,0.001953125
2026-09-02T19:12:45.251161,0.64892578125,0.0208740234375,0.0838623046875,0.75592041015625,0.078125,0.0703125,-0.1953125,0.029296875,-0.04296875,0.001953125
2026-09-02T19:12:45.351257,0.64892578125,0.0208740234375,0.0838623046875,0.75592041015625,0.078125,0.0703125,-0.1953125,0.029296875,-0.04296875,0.001953125
2026-09-02T19:12:45.451389,0.64892578125,0.0208740234375,0.0838623046875,0.75592041015625,0.078125,0.0703125,-0.1953125,0.029296875,-0.04296875,0.001953125
2026-09-02T19:12:45.551626,0.64892578125,0.0208740234375,0.0838623046875,0.75592041015625,0.078125,0.0703125,-0.1953125,0.029296875,-0.04296875,0.001953125
2026-09-02T19:12:45.651582,0.64892578125,0.0208740234375,0.0838623046875,0.75592041015625,0.078125,0.0703125,-0.1953125,0.029296875,-0.04296875,0.001953125
2026-09-02T19:12:45.752096,0.64892578125,0.0208740234375,0.0838623046875,0.75592041015625,0.078125,0.0703125,-0.1953125,0.029296875,-0.04296875,0.001953125
2026-09-02T19:12:45.852393,0.64892578125,0.0208740234375,0.0838623046875,0.75592041015625,0.078125,0.0703125,-0.1953125,0.029296875,-0.04296875,0.001953125
2026-09-02T19:12:45.951923,0.64892578125,0.0208740234375,0.0838623046875,0.75592041015625,0.078125,0.0703125,-0.1953125,0.029296875,-0.04296875,0.001953125
2026-09-02T19:12:46.052014,0.64892578125,0.0208740234375,0.0838623046875,0.75592041015625,0.078125,0.0703125,-0.1953125,0.029296875,-0.04296875,0.001953125
2026-09-02T19:12:46.152096,0.64892578125,0.0208740234375,0.0838623046875,0.75592041015625,0.078125,0.0703125,-0.1953125,0.029296875,-0.04296875,0.001953125
2026-09-02T19:12:46.252409,0.64892578125,0.0208740234375,0.0838623046875,0.75592041015625,0.078125,0.0703125,-0.1953125,0.029296875,-0.04296875,0.001953125
2026-09-02T19:12:46.352309,0.64892578125,0.0208740234375,0.0838623046875,0.75592041015625,0.078125,0.0703125,-0.1953125,0.029296875,-0.04296875,0.001953125
2026-09-02T19:12:46.452426,0.64892578125,0.0208740234375,0.0838623046875,0.75592041015625,0.078125,0.0703125,-0.1953125,0.029296875,-0.04296875,0.001953125
2026-09-02T19:12:46.552650,0.64892578125,0.0208740234375,0.0838623046875,0.75592041015625,0.078125,0.0703125,-0.1953125,0.029296875,-0.04296875,0.001953125
2026-09-02T19:12:46.652611,0.64892578125,0.0208740234375,0.0838623046875,0.75592041015625,0.078125,0.0703125,-0.1953125,0.029296875,-0.04296875,0.001953125
2026-09-02T19:12:46.752669,0.64892578125,0.0208740234375,0.0838623046875,0.75592041015625,0.078125,0.0703125,-0.1953125,0.029296875,-0.04296875,0.001953125
2026-09-02T19:12:46.852809,0.64892578125,0.0208740234375,0.0838623046875,0.75592041015625,0.078125,0.0703125,-0.1953125,0.029296875,-0.04296875,0.001953125
2026-09-02T19:12:46.952966,0.64892578125,0.0208740234375,0.0838623046875,0.75592041015625,0.078125,0.0703125,-0.1953125,0.029296875,-0.04296875,0.001953125
2026-09-02T19:12:47.053012,0.64892578125,0.0208740234375,0.0838623046875,0.75592041015625,0.078125,0.0703125,-0.1953125,0.029296875,-0.04296875,0.001953125
2026-09-02T19:12:47.153240,0.64892578125,0.0208740234375,0.0838623046875,0.75592041015625,0.078125,0.0703125,-0.1953125,0.029296875,-0.04296875,0.001953125
2026-09-02T19:12:47.253356,0.64892578125,0.0208740234375,0.0838623046875,0.75592041015625,0.078125,0.0703125,-0.1953125,0.029296875,-0.04296875,0.001953125
2026-09-02T19:12:47.353308,0.64892578125,0.0208740234375,0.0838623046875,0.75592041015625,0.078125,0.0703125,-0.1953125,0.029296875,-0.04296875,0.001953125
2026-09-02T19:12:47.453550,0.64892578125,0.0208740234375,0.0838623046875,0.75592041015625,0.078125,0.0703125,-0.1953125,0.029296875,-0.04296875,0.001953125
2026-09-02T19:12:47.553562,0.64892578125,0.0208740234375,0.0838623046875,0.75592041015625,0.078125,0.0703125,-0.1953125,0.029296875,-0.04296875,0.001953125
2026-09-02T19:12:47.653618,0.64892578125,0.0208740234375,0.0838623046875,0.75592041015625,0.078125,0.0703125,-0.1953125,0.029296875,-0.04296875,0.001953125
2026-09-02T19:12:47.753876,0.64892578125,0.0208740234375,0.0838623046875,0.75592041015625,0.078125,0.0703125,-0.1953125,0.029296875,-0.04296875,0.001953125
2026-09-02T19:12:47.853810,0.64892578125,0.0208740234375,0.0838623046875,0.75592041015625,0.078125,0.0703125,-0.1953125,0.029296875,-0.04296875,0.001953125
2026-09-02T19:12:47.954026,0.64892578125,0.0208740234375,0.0838623046875,0.75592041015625,0.078125,0.0703125,-0.1953125,0.029296875,-0.04296875,0.001953125
2026-09-02T19:12:48.054038,0.64892578125,0.0208740234375,0.0838623046875,0.75592041015625,0.078125,0.0703125,-0.1953125,0.029296875,-0.04296875,0.001953125
2026-09-02T19:12:48.154311,0.64892578125,0.0208740234375,0.0838623046875,0.75592041015625,0.078125,0.0703125,-0.1953125,0.029296875,-0.04296875,0.001953125
2026-09-02T19:12:48.254285,0.64892578125,0.0208740234375,0.0838623046875,0.75592041015625,0.078125,0.0703125,-0.1953125,0.029296875,-0.04296875,0.001953125
2026-09-02T19:12:48.354308,0.64892578125,0.0208740234375,0.0838623046875,0.75592041015625,0.078125,0.0703125,-0.1953125,0.029296875,-0.04296875,0.001953125
2026-09-02T19:12:48.454524,0.64892578125,0.0208740234375,0.0838623046875,0.75592041015625,0.078125,0.0703125,-0.1953125,0.029296875,-0.04296875,0.001953125
2026-09-02T19:12:48.554513,0.64892578125,0.0208740234375,0.0838623046875,0.75592041015625,0.078125,0.0703125,-0.1953125,0.029296875,-0.04296875,0.001953125
2026-09-02T19:12:48.654641,0.64892578125,0.0208740234375,0.0838623046875,0.75592041015625,0.078125,0.0703125,-0.1953125,0.029296875,-0.04296875,0.001953125
2026-09-02T19:12:48.754795,0.64892578125,0.0208740234375,0.0838623046875,0.75592041015625,0.078125,0.0703125,-0.1953125,0.029296875,-0.04296875,0.001953125
2026-09-02T19:12:48.854853,0.64892578125,0.0208740234375,0.0838623046875,0.75592041015625,0.078125,0.0703125,-0.1953125,0.029296875,-0.04296875,0.001953125
2026-09-02T19:12:48.955101,0.64892578125,0.0208740234375,0.0838623046875,0.75592041015625,0.078125,0.0703125,-0.1953125,0.029296875,-0.04296875,0.001953125
2026-09-02T19:12:49.055069,0.64892578125,0.0208740234375,0.0838623046875,0.75592041015625,0.078125,0.0703125,-0.1953125,0.029296875,-0.04296875,0.001953125
2026-09-02T19:12:49.155309,0.64892578125,0.0208740234375,0.0838623046875,0.75592041015625,0.078125,0.0703125,-0.1953125,0.029296875,-0.04296875,0.001953125
2026-09-02T19:12:49.255313,0.64892578125,0.0208740234375,0.0838623046875,0.75592041015625,0.078125,0.0703125,-0.1953125,0.029296875,-0.04296875,0.001953125
2026-09-02T19:12:49.355325,0.64892578125,0.0208740234375,0.0838623046875,0.75592041015625,0.078125,0.0703125,-0.1953125,0.029296875,-0.04296875,0.001953125
2026-09-02T19:12:49.455525,0.64892578125,0.0208740234375,0.0838623046875,0.75592041015625,0.078125,0.0703125,-0.1953125,0.029296875,-0.04296875,0.001953125
2026-09-02T19:12:49.555582,0.64892578125,0.0208740234375,0.0838623046875,0.75592041015625,0.078125,0.0703125,-0.1953125,0.029296875,-0.04296875,0.001953125
2026-09-02T19:12:49.655621,0.64892578125,0.0208740234375,0.0838623046875,0.75592041015625,0.078125,0.0703125,-0.1953125,0.029296875,-0.04296875,0.001953125
2026-09-02T19:12:49.755775,0.64892578125,0.0208740234375,0.0838623046875,0.75592041015625,0.078125,0.0703125,-0.1953125,0.029296875,-0.04296875,0.001953125
2026-09-02T19:12:49.855848,0.64892578125,0.0208740234375,0.0838623046875,0.75592041015625,0.078125,0.0703125,-0.1953125,0.029296875,-0.04296875,0.001953125
2026-09-02T19:12:49.956043,0.64892578125,0.0208740234375,0.0838623046875,0.75592041015625,0.078125,0.0703125,-0.1953125,0.029296875,-0.04296875,0.001953125
2026-09-02T19:12:50.056031,0.64892578125,0.0208740234375,0.0838623046875,0.75592041015625,0.078125,0.0703125,-0.1953125,0.029296875,-0.04296875,0.001953125
2026-09-02T19:12:50.156303,0.64892578125,0.0208740234375,0.0838623046875,0.75592041015625,0.078125,0.0703125,-0.1953125,0.029296875,-0.04296875,0.001953125
2026-09-02T19:12:50.256236,0.64892578125,0.0208740234375,0.0838623046875,0.75592041015625,0.078125,0.0703125,-0.1953125,0.029296875,-0.04296875,0.001953125
2026-09-02T19:12:50.356325,0.64892578125,0.0208740234375,0.0838623046875,0.75592041015625,0.078125,0.0703125,-0.1953125,0.029296875,-0.04296875,0.001953125
2026-09-02T19:12:50.456486,0.64892578125,0.0208740234375,0.0838623046875,0.75592041015625,0.078125,0.0703125,-0.1953125,0.029296875,-0.04296875,0.001953125
2026-09-02T19:12:50.556520,0.64892578125,0.0208740234375,0.0838623046875,0.75592041015625,0.078125,0.0703125,-0.1953125,0.029296875,-0.04296875,0.001953125
2026-09-02T19:12:50.656719,0.64892578125,0.0208740234375,0.0838623046875,0.75592041015625,0.078125,0.0703125,-0.1953125,0.029296875,-0.04296875,0.001953125
2026-09-02T19:12:50.756741,0.64892578125,0.0208740234375,0.0838623046875,0.75592041015625,0.078125,0.0703125,-0.1953125,0.029296875,-0.04296875,0.001953125
2026-09-02T19:12:50.856881,0.64892578125,0.0208740234375,0.0838623046875,0.75592041015625,0.078125,0.0703125,-0.1953125,0.029296875,-0.04296875,0.001953125
2026-09-02T19:12:50.957043,0.64892578125,0.0208740234375,0.0838623046875,0.75592041015625,0.078125,0.0703125,-0.1953125,0.029296875,-0.04296875,0.001953125
2026-09-02T19:12:51.057131,0.64892578125,0.0208740234375,0.0838623046875,0.75592041015625,0.078125,0.0703125,-0.1953125,0.029296875,-0.04296875,0.001953125
2026-09-02T19:12:51.157706,0.64892578125,0.0208740234375,0.0838623046875,0.75592041015625,0.078125,0.0703125,-0.1953125,0.029296875,-0.04296875,0.001953125
2026-09-02T19:12:51.257403,0.64892578125,0.0208740234375,0.0838623046875,0.75592041015625,0.078125,0.0703125,-0.1953125,0.029296875,-0.04296875,0.001953125
2026-09-02T19:12:51.357595,0.64892578125,0.0208740234375,0.0838623046875,0.75592041015625,0.078125,0.0703125,-0.1953125,0.029296875,-0.04296875,0.001953125
2026-09-02T19:12:51.457875,0.64892578125,0.0208740234375,0.0838623046875,0.75592041015625,0.078125,0.0703125,-0.1953125,0.029296875,-0.04296875,0.001953125
2026-09-02T19:12:51.557806,0.64892578125,0.0208740234375,0.0838623046875,0.75592041015625,0.078125,0.0703125,-0.1953125,0.029296875,-0.04296875,0.001953125
2026-09-02T19:12:51.658132,0.64892578125,0.0208740234375,0.0838623046875,0.75592041015625,0.078125,0.0703125,-0.1953125,0.029296875,-0.04296875,0.001953125
2026-09-02T19:12:51.758007,0.64892578125,0.0208740234375,0.0838623046875,0.75592041015625,0.078125,0.0703125,-0.1953125,0.029296875,-0.04296875,0.001953125
2026-09-02T19:12:51.858205,0.64892578125,0.0208740234375,0.0838623046875,0.75592041015625,0.078125,0.0703125,-0.1953125,0.029296875,-0.04296875,0.001953125
2026-09-02T19:12:51.958448,0.64892578125,0.0208740234375,0.0838623046875,0.75592041015625,0.078125,0.0703125,-0.1953125,0.029296875,-0.04296875,0.001953125
2026-09-02T19:12:52.058460,0.64892578125,0.0208740234375,0.0838623046875,0.75592041015625,0.078125,0.0703125,-0.1953125,0.029296875,-0.04296875,0.001953125
2026-09-02T19:12:52.158763,0.64892578125,0.0208740234375,0.0838623046875,0.75592041015625,0.078125,0.0703125,-0.1953125,0.029296875,-0.04296875,0.001953125
2026-09-02T19:12:52.258897,0.64892578125,0.0208740234375,0.0838623046875,0.75592041015625,0.078125,0.0703125,-0.1953125,0.029296875,-0.04296875,0.001953125
2026-09-02T19:12:52.358793,0.64892578125,0.0208740234375,0.0838623046875,0.75592041015625,0.078125,0.0703125,-0.1953125,0.029296875,-0.04296875,0.001953125
2026-09-02T19:12:52.458808,0.64892578125,0.0208740234375,0.0838623046875,0.75592041015625,0.078125,0.0703125,-0.1953125,0.029296875,-0.04296875,0.001953125
2026-09-02T19:12:52.559152,0.64892578125,0.0208740234375,0.0838623046875,0.75592041015625,0.078125,0.0703125,-0.1953125,0.029296875,-0.04296875,0.001953125
2026-09-02T19:12:52.659079,0.64892578125,0.0208740234375,0.0838623046875,0.75592041015625,0.078125,0.0703125,-0.1953125,0.029296875,-0.04296875,0.001953125
2026-09-02T19:12:52.759690,0.64892578125,0.0208740234375,0.0838623046875,0.75592041015625,0.078125,0.0703125,-0.1953125,0.029296875,-0.04296875,0.001953125
2026-09-02T19:12:52.859675,0.64892578125,0.0208740234375,0.0838623046875,0.75592041015625,0.078125,0.0703125,-0.1953125,0.029296875,-0.04296875,0.001953125
2026-09-02T19:12:52.959912,0.64892578125,0.0208740234375,0.0838623046875,0.75592041015625,0.078125,0.0703125,-0.1953125,0.029296875,-0.04296875,0.001953125
2026-09-02T19:12:53.059922,0.64892578125,0.0208740234375,0.0838623046875,0.75592041015625,0.078125,0.0703125,-0.1953125,0.029296875,-0.04296875,0.001953125
2026-09-02T19:12:53.160004,0.64892578125,0.0208740234375,0.0838623046875,0.75592041015625,0.078125,0.0703125,-0.1953125,0.029296875,-0.04296875,0.001953125
2026-09-02T19:12:53.260168,0.64892578125,0.0208740234375,0.0838623046875,0.75592041015625,0.078125,0.0703125,-0.1953125,0.029296875,-0.04296875,0.001953125
2026-09-02T19:12:53.360562,0.64892578125,0.0208740234375,0.0838623046875,0.75592041015625,0.078125,0.0703125,-0.1953125,0.029296875,-0.04296875,0.001953125
2026-09-02T19:12:53.460390,0.64892578125,0.0208740234375,0.0838623046875,0.75592041015625,0.078125,0.0703125,-0.1953125,0.029296875,-0.04296875,0.001953125
2026-09-02T19:12:53.560664,0.64892578125,0.0208740234375,0.0838623046875,0.75592041015625,0.078125,0.0703125,-0.1953125,0.029296875,-0.04296875,0.001953125
2026-09-02T19:12:53.660570,0.64892578125,0.0208740234375,0.0838623046875,0.75592041015625,0.078125,0.0703125,-0.1953125,0.029296875,-0.04296875,0.001953125
2026-09-02T19:12:53.760885,0.64892578125,0.0208740234375,0.0838623046875,0.75592041015625,0.078125,0.0703125,-0.1953125,0.029296875,-0.04296875,0.001953125
2026-09-02T19:12:53.860764,0.64892578125,0.0208740234375,0.0838623046875,0.75592041015625,0.078125,0.0703125,-0.1953125,0.029296875,-0.04296875,0.001953125
2026-09-02T19:12:53.960850,0.64892578125,0.0208740234375,0.0838623046875,0.75592041015625,0.078125,0.0703125,-0.1953125,0.029296875,-0.04296875,0.001953125
2026-09-02T19:12:54.061131,0.64892578125,0.0208740234375,0.0838623046875,0.75592041015625,0.078125,0.0703125,-0.1953125,0.029296875,-0.04296875,0.001953125
2026-09-02T19:12:54.161535,0.64892578125,0.0208740234375,0.0838623046875,0.75592041015625,0.078125,0.0703125,-0.1953125,0.029296875,-0.04296875,0.001953125
2026-09-02T19:12:54.261189,0.64892578125,0.0208740234375,0.0838623046875,0.75592041015625,0.078125,0.0703125,-0.1953125,0.029296875,-0.04296875,0.001953125
2026-09-02T19:12:54.361334,0.64892578125,0.0208740234375,0.0838623046875,0.75592041015625,0.078125,0.0703125,-0.1953125,0.029296875,-0.04296875,0.001953125
2026-09-02T19:12:54.461761,0.64892578125,0.0208740234375,0.0838623046875,0.75592041015625,0.078125,0.0703125,-0.1953125,0.029296875,-0.04296875,0.001953125
2026-09-02T19:12:54.561570,0.64892578125,0.0208740234375,0.0838623046875,0.75592041015625,0.078125,0.0703125,-0.1953125,0.029296875,-0.04296875,0.001953125
2026-09-02T19:12:54.661699,0.64892578125,0.0208740234375,0.0838623046875,0.75592041015625,0.078125,0.0703125,-0.1953125,0.029296875,-0.04296875,0.001953125
2026-09-02T19:12:54.761831,0.64892578125,0.0208740234375,0.0838623046875,0.75592041015625,0.078125,0.0703125,-0.1953125,0.029296875,-0.04296875,0.001953125
2026-09-02T19:12:54.861998,0.64892578125,0.0208740234375,0.0838623046875,0.75592041015625,0.078125,0.0703125,-0.1953125,0.029296875,-0.04296875,0.001953125
2026-09-02T19:12:54.962249,0.64892578125,0.0208740234375,0.0838623046875,0.75592041015625,0.078125,0.0703125,-0.1953125,0.029296875,-0.04296875,0.001953125
2026-09-02T19:12:55.062312,0.64892578125,0.0208740234375,0.0838623046875,0.75592041015625,0.078125,0.0703125,-0.1953125,0.029296875,-0.04296875,0.001953125
2026-09-02T19:12:55.162604,0.64892578125,0.0208740234375,0.0838623046875,0.75592041015625,0.078125,0.0703125,-0.1953125,0.029296875,-0.04296875,0.001953125
2026-09-02T19:12:55.262407,0.64892578125,0.0208740234375,0.0838623046875,0.75592041015625,0.078125,0.0703125,-0.1953125,0.029296875,-0.04296875,0.001953125
2026-09-02T19:12:55.362660,0.64892578125,0.0208740234375,0.0838623046875,0.75592041015625,0.078125,0.0703125,-0.1953125,0.029296875,-0.04296875,0.001953125
2026-09-02T19:12:55.462608,0.64892578125,0.0208740234375,0.0838623046875,0.75592041015625,0.078125,0.0703125,-0.1953125,0.029296875,-0.04296875,0.001953125
2026-09-02T19:12:55.563796,0.64892578125,0.0208740234375,0.0838623046875,0.75592041015625,0.078125,0.0703125,-0.1953125,0.029296875,-0.04296875,0.001953125
2026-09-02T19:12:55.662927,0.64892578125,0.0208740234375,0.0838623046875,0.75592041015625,0.078125,0.0703125,-0.1953125,0.029296875,-0.04296875,0.001953125
2026-09-02T19:12:55.763329,0.64892578125,0.0208740234375,0.0838623046875,0.75592041015625,0.078125,0.0703125,-0.1953125,0.029296875,-0.04296875,0.001953125
2026-09-02T19:12:55.863064,0.64892578125,0.0208740234375,0.0838623046875,0.75592041015625,0.078125,0.0703125,-0.1953125,0.029296875,-0.04296875,0.001953125
2026-09-02T19:12:55.963408,0.64892578125,0.0208740234375,0.0838623046875,0.75592041015625,0.078125,0.0703125,-0.1953125,0.029296875,-0.04296875,0.001953125
2026-09-02T19:12:56.063573,0.64892578125,0.0208740234375,0.0838623046875,0.75592041015625,0.078125,0.0703125,-0.1953125,0.029296875,-0.04296875,0.001953125
2026-09-02T19:12:56.163438,0.64892578125,0.0208740234375,0.0838623046875,0.75592041015625,0.078125,0.0703125,-0.1953125,0.029296875,-0.04296875,0.001953125
2026-09-02T19:12:56.263801,0.64892578125,0.0208740234375,0.0838623046875,0.75592041015625,0.078125,0.0703125,-0.1953125,0.029296875,-0.04296875,0.001953125
2026-09-02T19:12:56.363628,0.64892578125,0.0208740234375,0.0838623046875,0.75592041015625,0.078125,0.0703125,-0.1953125,0.029296875,-0.04296875,0.001953125
2026-09-02T19:12:56.463815,0.64892578125,0.0208740234375,0.0838623046875,0.75592041015625,0.078125,0.0703125,-0.1953125,0.029296875,-0.04296875,0.001953125
2026-09-02T19:12:56.563960,0.64892578125,0.0208740234375,0.0838623046875,0.75592041015625,0.078125,0.0703125,-0.1953125,0.029296875,-0.04296875,0.001953125
2026-09-02T19:12:56.664014,0.64892578125,0.0208740234375,0.0838623046875,0.75592041015625,0.078125,0.0703125,-0.1953125,0.029296875,-0.04296875,0.001953125
2026-09-02T19:12:56.764237,0.64892578125,0.0208740234375,0.0838623046875,0.75592041015625,0.078125,0.0703125,-0.1953125,0.029296875,-0.04296875,0.001953125
2026-09-02T19:12:56.864453,0.64892578125,0.0208740234375,0.0838623046875,0.75592041015625,0.078125,0.0703125,-0.1953125,0.029296875,-0.04296875,0.001953125
2026-09-02T19:12:56.964481,0.64892578125,0.0208740234375,0.0838623046875,0.75592041015625,0.078125,0.0703125,-0.1953125,0.029296875,-0.04296875,0.001953125
2026-09-02T19:12:57.064586,0.64892578125,0.0208740234375,0.0838623046875,0.75592041015625,0.078125,0.0703125,-0.1953125,0.029296875,-0.04296875,0.001953125
2026-09-02T19:12:57.164632,0.64892578125,0.0208740234375,0.0838623046875,0.75592041015625,0.078125,0.0703125,-0.1953125,0.029296875,-0.04296875,0.001953125
2026-09-02T19:12:57.264636,0.64892578125,0.0208740234375,0.0838623046875,0.75592041015625,0.078125,0.0703125,-0.1953125,0.029296875,-0.04296875,0.001953125
2026-09-02T19:12:57.364798,0.64892578125,0.0208740234375,0.0838623046875,0.75592041015625,0.078125,0.0703125,-0.1953125,0.029296875,-0.04296875,0.001953125
2026-09-02T19:12:57.465127,0.64892578125,0.0208740234375,0.0838623046875,0.75592041015625,0.078125,0.0703125,-0.1953125,0.029296875,-0.04296875,0.001953125
2026-09-02T19:12:57.565033,0.64892578125,0.0208740234375,0.0838623046875,0.75592041015625,0.078125,0.0703125,-0.1953125,0.029296875,-0.04296875,0.001953125
2026-09-02T19:12:57.665249,0.64892578125,0.0208740234375,0.0838623046875,0.75592041015625,0.078125,0.0703125,-0.1953125,0.029296875,-0.04296875,0.001953125
2026-09-02T19:12:57.765198,0.64892578125,0.0208740234375,0.0838623046875,0.75592041015625,0.078125,0.0703125,-0.1953125,0.029296875,-0.04296875,0.001953125
2026-09-02T19:12:57.865390,0.64892578125,0.0208740234375,0.0838623046875,0.75592041015625,0.078125,0.0703125,-0.1953125,0.029296875,-0.04296875,0.001953125
2026-09-02T19:12:57.965719,0.64892578125,0.0208740234375,0.0838623046875,0.75592041015625,0.078125,0.0703125,-0.1953125,0.029296875,-0.04296875,0.001953125
2026-09-02T19:12:58.065719,0.64892578125,0.0208740234375,0.0838623046875,0.75592041015625,0.078125,0.0703125,-0.1953125,0.029296875,-0.04296875,0.001953125
2026-09-02T19:12:58.165863,0.64892578125,0.0208740234375,0.0838623046875,0.75592041015625,0.078125,0.0703125,-0.1953125,0.029296875,-0.04296875,0.001953125
2026-09-02T19:12:58.265850,0.64892578125,0.0208740234375,0.0838623046875,0.75592041015625,0.078125,0.0703125,-0.1953125,0.029296875,-0.04296875,0.001953125
2026-09-02T19:12:58.366207,0.64892578125,0.0208740234375,0.0838623046875,0.75592041015625,0.078125,0.0703125,-0.1953125,0.029296875,-0.04296875,0.001953125
2026-09-02T19:12:58.466037,0.64892578125,0.0208740234375,0.0838623046875,0.75592041015625,0.078125,0.0703125,-0.1953125,0.029296875,-0.04296875,0.001953125
2026-09-02T19:12:58.566230,0.64892578125,0.0208740234375,0.0838623046875,0.75592041015625,0.078125,0.0703125,-0.1953125,0.029296875,-0.04296875,0.001953125
2026-09-02T19:12:58.666497,0.64892578125,0.0208740234375,0.0838623046875,0.75592041015625,0.078125,0.0703125,-0.1953125,0.029296875,-0.04296875,0.001953125
2026-09-02T19:12:58.766434,0.64892578125,0.0208740234375,0.0838623046875,0.75592041015625,0.078125,0.0703125,-0.1953125,0.029296875,-0.04296875,0.001953125
2026-09-02T19:12:58.866515,0.64892578125,0.0208740234375,0.0838623046875,0.75592041015625,0.078125,0.0703125,-0.1953125,0.029296875,-0.04296875,0.001953125
2026-09-02T19:12:58.966668,0.64892578125,0.0208740234375,0.0838623046875,0.75592041015625,0.078125,0.0703125,-0.1953125,0.029296875,-0.04296875,0.001953125
2026-09-02T19:12:59.067000,0.64892578125,0.0208740234375,0.0838623046875,0.75592041015625,0.078125,0.0703125,-0.1953125,0.029296875,-0.04296875,0.001953125
2026-09-02T19:12:59.167089,0.64892578125,0.0208740234375,0.0838623046875,0.75592041015625,0.078125,0.0703125,-0.1953125,0.029296875,-0.04296875,0.001953125
2026-09-02T19:12:59.267590,0.64892578125,0.0208740234375,0.0838623046875,0.75592041015625,0.078125,0.0703125,-0.1953125,0.029296875,-0.04296875,0.001953125
2026-09-02T19:12:59.367300,0.64892578125,0.0208740234375,0.0838623046875,0.75592041015625,0.078125,0.0703125,-0.1953125,0.029296875,-0.04296875,0.001953125
2026-09-02T19:12:59.467784,0.64892578125,0.0208740234375,0.0838623046875,0.75592041015625,0.078125,0.0703125,-0.1953125,0.029296875,-0.04296875,0.001953125
2026-09-02T19:12:59.567520,0.64892578125,0.0208740234375,0.0838623046875,0.75592041015625,0.078125,0.0703125,-0.1953125,0.029296875,-0.04296875,0.001953125
2026-09-02T19:12:59.667678,0.64892578125,0.0208740234375,0.0838623046875,0.75592041015625,0.078125,0.0703125,-0.1953125,0.029296875,-0.04296875,0.001953125
2026-09-02T19:12:59.767755,0.64892578125,0.0208740234375,0.0838623046875,0.75592041015625,0.078125,0.0703125,-0.1953125,0.029296875,-0.04296875,0.001953125
2026-09-02T19:12:59.867930,0.64892578125,0.0208740234375,0.0838623046875,0.75592041015625,0.078125,0.0703125,-0.1953125,0.029296875,-0.04296875,0.001953125
2026-09-02T19:12:59.967884,0.64892578125,0.0208740234375,0.0838623046875,0.75592041015625,0.078125,0.0703125,-0.1953125,0.029296875,-0.04296875,0.001953125
2026-09-02T19:13:00.068086,0.64892578125,0.0208740234375,0.0838623046875,0.75592041015625,0.078125,0.0703125,-0.1953125,0.029296875,-0.04296875,0.001953125
2026-09-02T19:13:00.168123,0.64892578125,0.0208740234375,0.0838623046875,0.75592041015625,0.078125,0.0703125,-0.1953125,0.029296875,-0.04296875,0.001953125
2026-09-02T19:13:00.268185,0.64892578125,0.0208740234375,0.0838623046875,0.75592041015625,0.078125,0.0703125,-0.1953125,0.029296875,-0.04296875,0.001953125
2026-09-02T19:13:00.368361,0.64892578125,0.0208740234375,0.0838623046875,0.75592041015625,0.078125,0.0703125,-0.1953125,0.029296875,-0.04296875,0.001953125
2026-09-02T19:13:00.468640,0.64892578125,0.0208740234375,0.0838623046875,0.75592041015625,0.078125,0.0703125,-0.1953125,0.029296875,-0.04296875,0.001953125
2026-09-02T19:13:00.568498,0.64892578125,0.0208740234375,0.0838623046875,0.75592041015625,0.078125,0.0703125,-0.1953125,0.029296875,-0.04296875,0.001953125
2026-09-02T19:13:00.668770,0.64892578125,0.0208740234375,0.0838623046875,0.75592041015625,0.078125,0.0703125,-0.1953125,0.029296875,-0.04296875,0.001953125
2026-09-02T19:13:00.768704,0.64892578125,0.0208740234375,0.0838623046875,0.75592041015625,0.078125,0.0703125,-0.1953125,0.029296875,-0.04296875,0.001953125
2026-09-02T19:13:00.868951,0.64892578125,0.0208740234375,0.0838623046875,0.75592041015625,0.078125,0.0703125,-0.1953125,0.029296875,-0.04296875,0.001953125
2026-09-02T19:13:00.968891,0.64892578125,0.0208740234375,0.0838623046875,0.75592041015625,0.078125,0.0703125,-0.1953125,0.029296875,-0.04296875,0.001953125
2026-09-02T19:13:01.069084,0.64892578125,0.0208740234375,0.0838623046875,0.75592041015625,0.078125,0.0703125,-0.1953125,0.029296875,-0.04296875,0.001953125
2026-09-02T19:13:01.169111,0.64892578125,0.0208740234375,0.0838623046875,0.75592041015625,0.078125,0.0703125,-0.1953125,0.029296875,-0.04296875,0.001953125
2026-09-02T19:13:01.269179,0.64892578125,0.0208740234375,0.0838623046875,0.75592041015625,0.078125,0.0703125,-0.1953125,0.029296875,-0.04296875,0.001953125
2026-09-02T19:13:01.369488,0.64892578125,0.0208740234375,0.0838623046875,0.75592041015625,0.078125,0.0703125,-0.1953125,0.029296875,-0.04296875,0.001953125
2026-09-02T19:13:01.469522,0.64892578125,0.0208740234375,0.0838623046875,0.75592041015625,0.078125,0.0703125,-0.1953125,0.029296875,-0.04296875,0.001953125
2026-09-02T19:13:01.569488,0.64892578125,0.0208740234375,0.0838623046875,0.75592041015625,0.078125,0.0703125,-0.1953125,0.029296875,-0.04296875,0.001953125
2026-09-02T19:13:01.669645,0.64892578125,0.0208740234375,0.0838623046875,0.75592041015625,0.078125,0.0703125,-0.1953125,0.029296875,-0.04296875,0.001953125
2026-09-02T19:13:01.769701,0.64892578125,0.0208740234375,0.0838623046875,0.75592041015625,0.078125,0.0703125,-0.1953125,0.029296875,-0.04296875,0.001953125
2026-09-02T19:13:01.869948,0.64892578125,0.0208740234375,0.0838623046875,0.75592041015625,0.078125,0.0703125,-0.1953125,0.029296875,-0.04296875,0.001953125
2026-09-02T19:13:01.969938,0.64892578125,0.0208740234375,0.0838623046875,0.75592041015625,0.078125,0.0703125,-0.1953125,0.029296875,-0.04296875,0.001953125
2026-09-02T19:13:02.070223,0.64892578125,0.0208740234375,0.0838623046875,0.75592041015625,0.078125,0.0703125,-0.1953125,0.029296875,-0.04296875,0.001953125
2026-09-02T19:13:02.170141,0.64892578125,0.0208740234375,0.0838623046875,0.75592041015625,0.078125,0.0703125,-0.1953125,0.029296875,-0.04296875,0.001953125
2026-09-02T19:13:02.270206,0.64892578125,0.0208740234375,0.0838623046875,0.75592041015625,0.078125,0.0703125,-0.1953125,0.029296875,-0.04296875,0.001953125
2026-09-02T19:13:02.370403,0.64892578125,0.0208740234375,0.0838623046875,0.75592041015625,0.078125,0.0703125,-0.1953125,0.029296875,-0.04296875,0.001953125
2026-09-02T19:13:02.470400,0.64892578125,0.0208740234375,0.0838623046875,0.75592041015625,0.078125,0.0703125,-0.1953125,0.029296875,-0.04296875,0.001953125
2026-09-02T19:13:02.570537,0.64892578125,0.0208740234375,0.0838623046875,0.75592041015625,0.078125,0.0703125,-0.1953125,0.029296875,-0.04296875,0.001953125
2026-09-02T19:13:02.670639,0.64892578125,0.0208740234375,0.0838623046875,0.75592041015625,0.078125,0.0703125,-0.1953125,0.029296875,-0.04296875,0.001953125
2026-09-02T19:13:02.770706,0.64892578125,0.0208740234375,0.0838623046875,0.75592041015625,0.078125,0.0703125,-0.1953125,0.029296875,-0.04296875,0.001953125
2026-09-02T19:13:02.870855,0.64892578125,0.0208740234375,0.0838623046875,0.75592041015625,0.078125,0.0703125,-0.1953125,0.029296875,-0.04296875,0.001953125
2026-09-02T19:13:02.970910,0.64892578125,0.0208740234375,0.0838623046875,0.75592041015625,0.078125,0.0703125,-0.1953125,0.029296875,-0.04296875,0.001953125
2026-09-02T19:13:03.071055,0.64892578125,0.0208740234375,0.0838623046875,0.75592041015625,0.078125,0.0703125,-0.1953125,0.029296875,-0.04296875,0.001953125
2026-09-02T19:13:03.171114,0.64892578125,0.0208740234375,0.0838623046875,0.75592041015625,0.078125,0.0703125,-0.1953125,0.029296875,-0.04296875,0.001953125
2026-09-02T19:13:03.271201,0.64892578125,0.0208740234375,0.0838623046875,0.75592041015625,0.078125,0.0703125,-0.1953125,0.029296875,-0.04296875,0.001953125
2026-09-02T19:13:03.371436,0.64892578125,0.0208740234375,0.0838623046875,0.75592041015625,0.078125,0.0703125,-0.1953125,0.029296875,-0.04296875,0.001953125
