timestamp,quat_i,quat_j,quat_k,quat_real,accel_x,accel_y,accel_z,gyro_x,gyro_y,gyro_z
2026-09-02 07:30:00.000,0.0,0.03,-0.96,0.28,0.52,0.03,0.17,-0.03,-0.094,0.063
2026-09-02 07:30:00.100,0.0,0.03,-0.96,0.28,0.85,0.17,0.02,0.054,0.037,0.001
2026-09-02 07:30:00.200,0.0,0.03,-0.96,0.28,0.65,0.04,0.05,0.09,-0.128,0.008
2026-09-02 07:30:00.300,0.0,0.03,-0.96,0.28,0.62,-0.01,-0.02,0.094,0.031,0.085
2026-09-02 07:30:00.400,0.0,0.03,-0.96,0.28,0.78,0.27,0.14,0.023,0.01,-0.074
2026-09-02 07:30:00.500,0.0,0.03,-0.96,0.28,0.83,-0.25,-0.21,0.026,0.11,0.041
2026-09-02 07:30:00.600,0.0,0.03,-0.96,0.28,0.27,-0.15,-0.11,0.005,-0.062,-0.013
2026-09-02 07:30:00.700,0.0,0.03,-0.96,0.28,0.65,0.04,0.49,-0.062,0.004,0.025
2026-09-02 07:30:00.800,0.001,0.03,-0.96,0.28,0.47,0.26,0.1,0.04,0.065,-0.081
2026-09-02 07:30:00.900,0.001,0.03,-0.96,0.28,0.52,-0.08,-0.1,-0.091,-0.003,-0.13
2026-09-02 07:30:01.000,0.001,0.03,-0.96,0.28,0.77,-0.38,0.16,-0.07,0.023,-0.022
2026-09-02 07:30:01.100,0.001,0.03,-0.96,0.28,0.53,0.2,0.01,-0.015,-0.064,0.044
2026-09-02 07:30:01.200,0.001,0.03,-0.96,0.28,0.72,0.04,0.31,-0.017,-0.003,0.02
2026-09-02 07:30:01.300,0.001,0.03,-0.959,0.28,0.81,0.4,-0.01,0.044,-0.071,-0.016
2026-09-02 07:30:01.400,0.001,0.03,-0.959,0.28,0.41,0.32,-0.01,0.07,-0.065,0.028
2026-09-02 07:30:01.500,0.001,0.03,-0.959,0.28,0.54,-0.28,-0.51,0.03,0.04,-0.005
2026-09-02 07:30:01.600,0.001,0.03,-0.959,0.28,0.63,0.1,0.1,0.014,-0.087,-0.033
2026-09-02 07:30:01.700,0.001,0.03,-0.959,0.28,0.51,0.18,-0.13,0.082,-0.015,-0.06
2026-09-02 07:30:01.800,0.001,0.03,-0.959,0.28,0.73,-0.13,-0.14,-0.046,0.04,-0.025
2026-09-02 07:30:01.900,0.001,0.03,-0.959,0.28,0.78,-0.17,0.39,-0.055,0.051,0.106
2026-09-02 07:30:02.000,0.001,0.03,-0.959,0.28,0.64,-0.01,0.06,0.002,0.031,-0.11
2026-09-02 07:30:02.100,0.001,0.03,-0.959,0.28,0.44,-0.27,-0.14,-0.051,-0.018,-0.184
2026-09-02 07:30:02.200,0.001,0.03,-0.959,0.28,0.68,0.1,-0.25,0.055,0.065,0.063
2026-09-02 07:30:02.300,0.002,0.03,-0.959,0.28,0.63,-0.06,-0.14,-0.025,0.019,-0.137
2026-09-02 07:30:02.400,0.002,0.03,-0.959,0.28,0.52,0.14,0.1,0.033,0.05,0.015
2026-09-02 07:30:02.500,0.002,0.03,-0.959,0.28,0.73,-0.27,-0.01,0.064,0.015,-0.126
2026-09-02 07:30:02.600,0.002,0.03,-0.959,0.28,0.73,-0.14,0.24,0.074,-0.005,0.034
2026-09-02 07:30:02.700,0.002,0.03,-0.959,0.28,0.37,0.1,0.17,0.014,-0.028,-0.082
2026-09-02 07:30:02.800,0.002,0.03,-0.959,0.28,0.43,-0.23,0.14,0.011,0.057,-0.019
2026-09-02 07:30:02.900,0.002,0.03,-0.959,0.28,0.6,-0.1,0.01,-0.083,-0.057,0.086
2026-09-02 07:30:03.000,0.002,0.03,-0.959,0.28,0.86,-0.11,0.02,-0.041,-0.03,0.094
2026-09-02 07:30:03.100,0.002,0.03,-0.959,0.28,0.66,-0.07,0.24,-0.084,0.068,0.074
2026-09-02 07:30:03.200,0.002,0.03,-0.959,0.28,0.54,0.03,0.03,0.062,0.017,0.014
2026-09-02 07:30:03.300,0.002,0.03,-0.959,0.28,0.43,-0.08,-0.26,-0.049,0.016,-0.03
2026-09-02 07:30:03.400,0.002,0.03,-0.959,0.28,0.9,0.03,-0.07,-0.008,0.013,-0.002
2026-09-02 07:30:03.500,0.002,0.03,-0.959,0.28,0.23,0.08,-0.13,-0.095,-0.061,0.044
2026-09-02 07:30:03.600,0.002,0.03,-0.959,0.28,0.51,0.44,0.24,-0.082,0.05,-0.033
2026-09-02 07:30:03.700,0.002,0.03,-0.959,0.28,0.26,-0.05,0.01,-0.065,0.012,-0.019
2026-09-02 07:30:03.800,0.003,0.03,-0.958,0.28,0.58,-0.06,0.14,-0.0,0.003,-0.003
2026-09-02 07:30:03.900,0.003,0.03,-0.958,0.28,0.71,0.21,0.04,-0.042,0.033,-0.083
2026-09-02 07:30:04.000,0.003,0.03,-0.958,0.28,0.72,-0.04,0.15,0.04,0.027,0.106
2026-09-02 07:30:04.100,0.003,0.03,-0.958,0.28,0.29,-0.16,-0.16,0.081,0.027,-0.033
2026-09-02 07:30:04.200,0.003,0.03,-0.958,0.28,0.4,0.42,-0.01,-0.067,-0.026,0.038
2026-09-02 07:30:04.300,0.003,0.03,-0.958,0.28,0.66,-0.22,0.12,-0.135,-0.05,0.152
2026-09-02 07:30:04.400,0.003,0.03,-0.958,0.28,0.62,0.12,-0.14,0.013,-0.017,0.057
2026-09-02 07:30:04.500,0.003,0.03,-0.958,0.28,0.71,0.14,-0.03,-0.042,0.028,-0.026
2026-09-02 07:30:04.600,0.003,0.03,-0.958,0.28,0.49,-0.04,-0.13,-0.036,-0.028,0.034
2026-09-02 07:30:04.700,0.003,0.03,-0.958,0.28,0.8,0.0,0.14,-0.153,-0.031,-0.016
2026-09-02 07:30:04.800,0.003,0.03,-0.958,0.28,0.54,-0.12,-0.04,0.134,-0.02,0.018
2026-09-02 07:30:04.900,0.003,0.03,-0.958,0.28,0.78,-0.03,0.02,-0.042,0.059,-0.027
2026-09-02 07:30:05.000,0.003,0.03,-0.958,0.28,0.63,-0.17,0.18,0.05,0.03,0.097
2026-09-02 07:30:05.100,0.003,0.03,-0.958,0.28,0.66,-0.13,-0.08,0.015,0.045,0.012
2026-09-02 07:30:05.200,0.003,0.03,-0.958,0.28,0.67,0.12,-0.1,0.012,0.089,0.005
2026-09-02 07:30:05.300,0.004,0.03,-0.958,0.28,0.68,0.04,0.04,-0.021,0.015,0.11
2026-09-02 07:30:05.400,0.004,0.03,-0.958,0.28,0.82,0.15,-0.12,0.062,-0.004,-0.056
2026-09-02 07:30:05.500,0.004,0.03,-0.958,0.28,0.5,-0.22,0.08,-0.027,0.054,-0.202
2026-09-02 07:30:05.600,0.004,0.03,-0.958,0.28,0.57,0.05,0.04,-0.003,0.014,0.049
2026-09-02 07:30:05.700,0.004,0.03,-0.958,0.28,0.89,-0.37,-0.03,0.034,0.014,-0.074
2026-09-02 07:30:05.800,0.004,0.03,-0.958,0.28,0.78,-0.22,0.1,0.026,-0.057,0.016
2026-09-02 07:30:05.900,0.004,0.03,-0.958,0.28,0.72,-0.17,-0.15,-0.018,-0.035,-0.028
2026-09-02 07:30:06.000,0.004,0.03,-0.958,0.28,0.68,0.07,0.2,-0.001,-0.125,0.064
2026-09-02 07:30:06.100,0.004,0.03,-0.958,0.28,0.95,-0.09,0.21,-0.02,-0.002,0.021
2026-09-02 07:30:06.200,0.004,0.03,-0.958,0.28,0.57,-0.06,-0.02,-0.029,-0.074,-0.113
2026-09-02 07:30:06.300,0.004,0.03,-0.958,0.28,0.68,0.04,0.09,0.026,0.087,0.104
2026-09-02 07:30:06.400,0.004,0.03,-0.957,0.28,0.46,-0.01,0.15,-0.036,-0.019,0.056
2026-09-02 07:30:06.500,0.004,0.03,-0.957,0.28,0.74,-0.18,0.01,0.01,0.007,0.031
2026-09-02 07:30:06.600,0.004,0.03,-0.957,0.28,0.48,0.04,0.13,-0.008,-0.024,-0.107
2026-09-02 07:30:06.700,0.004,0.03,-0.957,0.28,0.69,-0.1,0.04,0.038,0.046,0.106
2026-09-02 07:30:06.800,0.004,0.03,-0.957,0.28,0.52,0.15,0.0,-0.02,-0.063,-0.058
2026-09-02 07:30:06.900,0.005,0.03,-0.957,0.28,0.6,0.11,-0.01,0.062,0.007,0.045
2026-09-02 07:30:07.000,0.005,0.03,-0.957,0.28,0.54,0.27,-0.15,-0.066,0.026,-0.026
2026-09-02 07:30:07.100,0.005,0.03,-0.957,0.28,0.83,-0.5,0.14,0.014,-0.025,0.015
2026-09-02 07:30:07.200,0.005,0.03,-0.957,0.28,0.85,-0.08,0.2,0.034,0.021,0.042
2026-09-02 07:30:07.300,0.005,0.03,-0.957,0.28,0.65,-0.14,0.05,0.002,0.017,-0.028
2026-09-02 07:30:07.400,0.005,0.029,-0.957,0.28,0.74,0.29,-0.06,-0.03,-0.019,-0.04
2026-09-02 07:30:07.500,0.005,0.029,-0.957,0.28,0.39,-0.23,0.13,0.008,-0.079,-0.058
2026-09-02 07:30:07.600,0.005,0.029,-0.957,0.28,0.58,0.16,0.06,0.006,-0.064,-0.019
2026-09-02 07:30:07.700,0.005,0.029,-0.957,0.28,0.54,-0.22,0.17,-0.027,-0.015,-0.009
2026-09-02 07:30:07.800,0.005,0.029,-0.957,0.28,0.63,-0.01,-0.14,-0.032,-0.029,0.043
2026-09-02 07:30:07.900,0.005,0.029,-0.957,0.28,0.62,-0.05,-0.02,0.021,0.031,-0.121
2026-09-02 07:30:08.000,0.005,0.029,-0.957,0.279,0.71,-0.01,0.37,-0.051,-0.014,0.065
2026-09-02 07:30:08.100,0.005,0.029,-0.957,0.279,0.73,-0.03,0.17,-0.08,-0.004,-0.051
2026-09-02 07:30:08.200,0.005,0.029,-0.957,0.279,0.82,0.32,-0.01,-0.102,-0.042,-0.079
2026-09-02 07:30:08.300,0.005,0.029,-0.957,0.279,0.75,-0.08,0.05,0.022,0.027,-0.096
2026-09-02 07:30:08.400,0.006,0.029,-0.957,0.279,0.73,-0.2,0.07,0.054,0.092,0.013
2026-09-02 07:30:08.500,0.006,0.029,-0.957,0.279,0.58,-0.01,0.29,-0.0,-0.023,-0.055
2026-09-02 07:30:08.600,0.006,0.029,-0.957,0.279,0.68,0.15,0.12,-0.057,0.008,0.02
2026-09-02 07:30:08.700,0.006,0.029,-0.957,0.279,0.63,0.27,0.15,0.005,-0.048,-0.2
2026-09-02 07:30:08.800,0.006,0.029,-0.957,0.279,0.58,0.06,0.14,0.029,0.024,-0.058
2026-09-02 07:30:08.900,0.006,0.029,-0.957,0.279,0.59,0.05,0.13,-0.071,-0.012,-0.061
2026-09-02 07:30:09.000,0.006,0.029,-0.956,0.279,0.8,-0.13,0.18,-0.02,0.163,-0.08
2026-09-02 07:30:09.100,0.006,0.029,-0.956,0.279,0.46,-0.06,0.02,0.079,0.043,-0.102
2026-09-02 07:30:09.200,0.006,0.029,-0.956,0.279,0.43,-0.41,0.14,-0.066,0.003,0.033
2026-09-02 07:30:09.300,0.006,0.029,-0.956,0.279,0.55,-0.51,0.04,0.007,-0.021,-0.047
2026-09-02 07:30:09.400,0.006,0.029,-0.956,0.279,0.57,-0.21,-0.15,0.037,0.007,-0.104
2026-09-02 07:30:09.500,0.006,0.029,-0.956,0.279,0.59,0.14,0.11,0.076,-0.013,-0.064
2026-09-02 07:30:09.600,0.006,0.029,-0.956,0.279,0.69,0.12,0.04,0.022,0.01,0.007
2026-09-02 07:30:09.700,0.006,0.029,-0.956,0.279,0.73,-0.01,0.04,0.047,0.072,-0.055
2026-09-02 07:30:09.800,0.006,0.029,-0.956,0.279,0.64,0.08,0.02,0.029,0.012,0.02
2026-09-02 07:30:09.900,0.006,0.029,-0.956,0.279,0.4,-0.01,0.11,-0.022,0.008,-0.026
2026-09-02 07:30:10.000,0.007,0.029,-0.956,0.279,0.82,0.29,0.19,0.154,0.031,0.024
2026-09-02 07:30:10.100,0.007,0.029,-0.956,0.279,0.55,0.16,-0.08,-0.015,0.004,-0.111
2026-09-02 07:30:10.200,0.007,0.029,-0.956,0.279,0.41,-0.07,-0.1,0.014,-0.039,0.023
2026-09-02 07:30:10.300,0.007,0.029,-0.956,0.279,0.35,0.13,0.26,-0.088,0.069,0.077
2026-09-02 07:30:10.400,0.007,0.029,-0.956,0.279,0.67,0.11,-0.26,0.088,-0.037,-0.019
2026-09-02 07:30:10.500,0.007,0.029,-0.956,0.279,0.77,-0.11,0.04,-0.076,0.036,0.014
2026-09-02 07:30:10.600,0.007,0.029,-0.956,0.279,0.43,-0.08,0.09,-0.007,0.014,0.077
2026-09-02 07:30:10.700,0.007,0.029,-0.956,0.279,0.64,-0.04,0.34,0.018,0.054,0.158
2026-09-02 07:30:10.800,0.007,0.029,-0.956,0.279,0.45,-0.28,0.06,-0.004,-0.022,-0.132
2026-09-02 07:30:10.900,0.007,0.029,-0.956,0.279,0.77,0.2,0.02,-0.024,-0.063,0.028
2026-09-02 07:30:11.000,0.007,0.029,-0.956,0.279,0.69,0.1,0.19,-0.037,-0.022,-0.033
2026-09-02 07:30:11.100,0.007,0.029,-0.956,0.279,0.9,0.02,0.23,0.074,0.14,0.166
2026-09-02 07:30:11.200,0.007,0.029,-0.956,0.279,0.6,0.04,-0.02,-0.055,0.058,0.051
2026-09-02 07:30:11.300,0.007,0.029,-0.956,0.279,0.48,-0.07,-0.15,0.094,0.11,0.013
2026-09-02 07:30:11.400,0.007,0.029,-0.956,0.279,0.77,-0.17,0.13,0.029,0.018,0.062
2026-09-02 07:30:11.500,0.007,0.029,-0.956,0.279,0.4,0.08,0.07,-0.044,-0.065,-0.05
2026-09-02 07:30:11.600,0.008,0.029,-0.956,0.279,0.64,-0.26,0.06,0.023,0.097,0.034
2026-09-02 07:30:11.700,0.008,0.029,-0.955,0.279,0.84,0.24,0.02,0.029,0.01,-0.037
2026-09-02 07:30:11.800,0.008,0.029,-0.955,0.279,0.63,0.17,-0.19,0.027,-0.014,0.019
2026-09-02 07:30:11.900,0.008,0.029,-0.955,0.279,0.66,0.17,-0.04,-0.007,-0.002,-0.047
2026-09-02 07:30:12.000,0.008,0.029,-0.955,0.279,0.41,-0.16,0.06,-0.041,-0.029,0.118
2026-09-02 07:30:12.100,0.008,0.029,-0.955,0.279,0.56,0.07,-0.2,0.011,-0.079,0.068
2026-09-02 07:30:12.200,0.008,0.029,-0.955,0.279,0.55,0.06,-0.21,0.039,-0.021,0.001
2026-09-02 07:30:12.300,0.008,0.029,-0.955,0.279,0.4,0.0,-0.21,0.074,-0.045,-0.022
2026-09-02 07:30:12.400,0.008,0.029,-0.955,0.279,0.48,0.08,-0.26,-0.009,-0.095,-0.072
2026-09-02 07:30:12.500,0.008,0.029,-0.955,0.279,0.64,0.04,-0.37,0.114,0.057,0.066
2026-09-02 07:30:12.600,0.008,0.029,-0.955,0.279,0.63,0.21,-0.1,-0.053,0.03,-0.006
2026-09-02 07:30:12.700,0.008,0.029,-0.955,0.279,0.26,-0.26,-0.09,0.046,-0.007,0.069
2026-09-02 07:30:12.800,0.008,0.028,-0.955,0.279,0.49,-0.22,0.11,0.101,0.012,-0.008
2026-09-02 07:30:12.900,0.008,0.028,-0.955,0.279,0.62,-0.16,-0.01,0.021,-0.024,-0.001
2026-09-02 07:30:13.000,0.008,0.028,-0.955,0.279,0.45,-0.2,0.04,0.016,0.077,-0.04
2026-09-02 07:30:13.100,0.008,0.028,-0.955,0.279,0.67,0.11,-0.01,0.012,-0.06,-0.139
2026-09-02 07:30:13.200,0.009,0.028,-0.955,0.279,0.52,0.4,-0.09,0.073,-0.01,0.031
2026-09-02 07:30:13.300,0.009,0.028,-0.955,0.279,0.58,0.02,0.19,-0.027,0.011,-0.012
2026-09-02 07:30:13.400,0.009,0.028,-0.955,0.279,0.5,-0.01,0.08,-0.055,0.107,-0.073
2026-09-02 07:30:13.500,0.009,0.028,-0.955,0.279,0.51,-0.1,0.13,0.039,-0.058,0.008
2026-09-02 07:30:13.600,0.009,0.028,-0.955,0.279,0.41,0.55,0.02,0.092,0.031,-0.13
2026-09-02 07:30:13.700,0.009,0.028,-0.955,0.279,0.39,-0.02,0.03,-0.011,0.009,-0.105
2026-09-02 07:30:13.800,0.009,0.028,-0.955,0.279,0.68,0.13,-0.15,-0.063,0.025,0.016
2026-09-02 07:30:13.900,0.009,0.028,-0.955,0.278,0.78,-0.32,0.04,-0.006,0.155,0.067
2026-09-02 07:30:14.000,0.009,0.028,-0.955,0.278,0.8,0.44,-0.13,0.021,-0.004,0.044
2026-09-02 07:30:14.100,0.009,0.028,-0.955,0.278,0.84,-0.08,0.19,-0.049,0.111,0.014
2026-09-02 07:30:14.200,0.009,0.028,-0.955,0.278,0.67,0.36,-0.21,0.035,-0.08,0.015
2026-09-02 07:30:14.300,0.009,0.028,-0.955,0.278,0.63,-0.03,0.07,-0.001,0.031,0.148
2026-09-02 07:30:14.400,0.009,0.028,-0.955,0.278,0.79,-0.09,-0.15,0.06,-0.06,0.031
2026-09-02 07:30:14.500,0.009,0.028,-0.955,0.278,0.5,-0.14,0.12,-0.012,0.05,0.129
2026-09-02 07:30:14.600,0.009,0.028,-0.954,0.278,0.76,0.26,0.17,-0.07,0.065,-0.128
2026-09-02 07:30:14.700,0.009,0.028,-0.954,0.278,0.51,0.04,-0.17,0.007,0.065,0.043
2026-09-02 07:30:14.800,0.009,0.028,-0.954,0.278,0.68,-0.32,-0.09,0.014,0.067,-0.072
2026-09-02 07:30:14.900,0.01,0.028,-0.954,0.278,0.58,0.17,-0.16,-0.023,-0.077,-0.007
2026-09-02 07:30:15.000,0.01,0.028,-0.954,0.278,0.7,0.06,0.2,0.067,-0.004,0.081
2026-09-02 07:30:15.100,0.01,0.028,-0.954,0.278,0.69,-0.28,-0.15,-0.009,-0.037,-0.029
2026-09-02 07:30:15.200,0.01,0.028,-0.954,0.278,0.59,0.15,0.02,0.007,-0.107,0.09
2026-09-02 07:30:15.300,0.01,0.028,-0.954,0.278,0.53,-0.31,0.07,0.039,-0.007,-0.006
2026-09-02 07:30:15.400,0.01,0.028,-0.954,0.278,0.53,0.38,-0.16,-0.001,0.093,0.032
2026-09-02 07:30:15.500,0.01,0.028,-0.954,0.278,0.73,0.08,0.02,0.005,-0.069,-0.051
2026-09-02 07:30:15.600,0.01,0.028,-0.954,0.278,0.77,-0.29,-0.07,-0.017,-0.068,-0.054
2026-09-02 07:30:15.700,0.01,0.028,-0.954,0.278,0.73,-0.03,0.06,-0.037,0.035,-0.017
2026-09-02 07:30:15.800,0.01,0.028,-0.954,0.278,0.86,-0.28,0.01,0.141,0.046,0.065
2026-09-02 07:30:15.900,0.01,0.028,-0.954,0.278,0.63,-0.07,0.09,0.064,-0.029,-0.008
2026-09-02 07:30:16.000,0.01,0.028,-0.954,0.278,0.63,0.06,0.2,0.036,-0.059,-0.001
2026-09-02 07:30:16.100,0.01,0.028,-0.954,0.278,0.65,-0.12,0.05,0.039,-0.031,0.15
2026-09-02 07:30:16.200,0.01,0.028,-0.954,0.278,0.5,0.16,0.15,0.025,-0.04,0.006
2026-09-02 07:30:16.300,0.01,0.028,-0.954,0.278,0.58,-0.03,-0.13,-0.029,-0.026,-0.111
2026-09-02 07:30:16.400,0.01,0.028,-0.954,0.278,0.98,-0.05,0.01,-0.013,0.049,0.0
2026-09-02 07:30:16.500,0.01,0.027,-0.954,0.278,0.67,-0.14,0.16,-0.071,0.015,-0.08
2026-09-02 07:30:16.600,0.011,0.027,-0.954,0.278,0.67,-0.29,-0.08,-0.016,0.022,0.107
2026-09-02 07:30:16.700,0.011,0.027,-0.954,0.278,0.47,0.26,0.22,-0.02,-0.025,-0.045
2026-09-02 07:30:16.800,0.011,0.027,-0.954,0.278,0.66,-0.38,0.1,-0.033,-0.049,-0.051
2026-09-02 07:30:16.900,0.011,0.027,-0.954,0.278,0.61,0.02,-0.18,0.007,-0.027,-0.147
2026-09-02 07:30:17.000,0.011,0.027,-0.954,0.278,0.52,0.14,0.06,0.013,0.026,0.026
2026-09-02 07:30:17.100,0.011,0.027,-0.954,0.278,0.46,-0.06,-0.04,0.035,0.016,0.023
2026-09-02 07:30:17.200,0.011,0.027,-0.954,0.278,0.65,0.13,0.21,-0.093,0.025,0.027
2026-09-02 07:30:17.300,0.011,0.027,-0.954,0.278,0.51,-0.34,-0.35,-0.061,-0.044,0.004
2026-09-02 07:30:17.400,0.011,0.027,-0.954,0.278,0.43,0.15,0.17,-0.041,0.043,-0.014
2026-09-02 07:30:17.500,0.011,0.027,-0.954,0.278,0.76,-0.06,-0.05,-0.031,-0.025,-0.069
2026-09-02 07:30:17.600,0.011,0.027,-0.954,0.278,0.48,0.31,0.16,0.004,-0.038,-0.055
2026-09-02 07:30:17.700,0.011,0.027,-0.953,0.278,0.48,0.22,0.04,0.016,-0.021,0.036
2026-09-02 07:30:17.800,0.011,0.027,-0.953,0.278,0.62,0.3,-0.2,-0.02,-0.017,-0.045
2026-09-02 07:30:17.900,0.011,0.027,-0.953,0.278,0.76,0.11,0.24,-0.017,0.034,0.187
2026-09-02 07:30:18.000,0.011,0.027,-0.953,0.278,0.72,-0.01,-0.17,-0.096,0.005,0.055
2026-09-02 07:30:18.100,0.011,0.027,-0.953,0.277,0.57,-0.33,-0.27,0.02,-0.011,0.027
2026-09-02 07:30:18.200,0.011,0.027,-0.953,0.277,0.39,0.25,0.07,-0.055,0.061,0.16
2026-09-02 07:30:18.300,0.011,0.027,-0.953,0.277,0.38,-0.12,0.09,0.016,-0.061,0.074
2026-09-02 07:30:18.400,0.012,0.027,-0.953,0.277,0.67,-0.28,0.17,0.026,-0.024,-0.079
2026-09-02 07:30:18.500,0.012,0.027,-0.953,0.277,0.78,0.06,0.06,0.059,0.043,-0.177
2026-09-02 07:30:18.600,0.012,0.027,-0.953,0.277,0.32,-0.11,0.09,-0.081,-0.032,-0.09
2026-09-02 07:30:18.700,0.012,0.027,-0.953,0.277,0.75,0.05,-0.1,-0.044,0.051,0.04
2026-09-02 07:30:18.800,0.012,0.027,-0.953,0.277,0.76,-0.03,0.16,-0.022,0.058,0.03
2026-09-02 07:30:18.900,0.012,0.027,-0.953,0.277,0.57,0.24,-0.31,0.001,0.005,-0.126
2026-09-02 07:30:19.000,0.012,0.027,-0.953,0.277,0.83,0.04,-0.08,0.019,-0.003,0.002
2026-09-02 07:30:19.100,0.012,0.027,-0.953,0.277,0.47,-0.11,0.17,0.035,0.055,0.056
2026-09-02 07:30:19.200,0.012,0.027,-0.953,0.277,0.65,-0.08,-0.06,0.007,-0.064,-0.116
2026-09-02 07:30:19.300,0.012,0.027,-0.953,0.277,0.37,0.18,0.12,-0.063,0.025,-0.092
2026-09-02 07:30:19.400,0.012,0.027,-0.953,0.277,0.57,-0.19,-0.24,0.057,0.079,-0.014
2026-09-02 07:30:19.500,0.012,0.027,-0.953,0.277,0.58,0.02,0.08,-0.013,0.005,0.02
2026-09-02 07:30:19.600,0.012,0.026,-0.953,0.277,0.82,-0.29,0.01,0.068,-0.028,0.079
2026-09-02 07:30:19.700,0.012,0.026,-0.953,0.277,0.62,0.32,-0.08,0.023,-0.002,0.077
2026-09-02 07:30:19.800,0.012,0.026,-0.953,0.277,9.28,-0.09,-0.05,0.025,0.061,0.026
2026-09-02 07:30:19.900,0.012,0.026,-0.953,0.277,17.86,0.08,-0.07,0.016,0.033,0.039
2026-09-02 07:30:20.000,0.012,0.026,-0.953,0.277,9.22,-0.04,-0.1,-0.069,0.008,0.006
2026-09-02 07:30:20.100,0.012,0.026,-0.953,0.277,-0.16,0.45,-0.11,-0.019,0.094,-0.058
2026-09-02 07:30:20.200,0.012,0.026,-0.953,0.277,0.08,-0.14,-0.04,0.05,0.028,0.054
2026-09-02 07:30:20.300,0.013,0.026,-0.953,0.277,0.03,0.02,0.18,-0.037,-0.003,0.002
2026-09-02 07:30:20.400,0.013,0.026,-0.953,0.277,0.12,0.31,0.12,-0.031,0.021,0.166
2026-09-02 07:30:20.500,0.013,0.026,-0.953,0.277,-0.15,-0.07,0.17,-0.06,0.07,-0.024
2026-09-02 07:30:20.600,0.013,0.026,-0.953,0.277,0.24,-0.41,-0.18,-0.013,-0.033,0.107
2026-09-02 07:30:20.700,0.013,0.026,-0.953,0.277,0.23,0.19,-0.35,-0.088,-0.059,-0.067
2026-09-02 07:30:20.800,0.013,0.026,-0.953,0.277,0.03,-0.26,-0.37,-0.094,-0.016,-0.041
2026-09-02 07:30:20.900,0.013,0.026,-0.953,0.277,0.02,0.21,0.13,-0.007,0.07,0.028
2026-09-02 07:30:21.000,0.013,0.026,-0.953,0.277,-0.08,0.07,-0.1,-0.058,-0.064,-0.085
2026-09-02 07:30:21.100,0.013,0.026,-0.953,0.277,0.09,-0.02,0.17,-0.025,0.018,-0.088
2026-09-02 07:30:21.200,0.013,0.026,-0.953,0.277,0.01,-0.27,-0.01,-0.01,-0.075,-0.005
2026-09-02 07:30:21.300,0.013,0.026,-0.952,0.277,0.17,0.67,-0.11,0.014,-0.159,0.087
2026-09-02 07:30:21.400,0.013,0.026,-0.952,0.277,0.24,-0.03,0.07,0.052,0.034,-0.033
2026-09-02 07:30:21.500,0.013,0.026,-0.952,0.277,0.09,-0.24,-0.18,0.029,0.028,0.057
2026-09-02 07:30:21.600,0.013,0.026,-0.952,0.276,0.09,0.17,0.05,-0.016,0.023,0.071
2026-09-02 07:30:21.700,0.013,0.026,-0.952,0.276,0.12,-0.38,0.27,-0.098,-0.002,0.065
2026-09-02 07:30:21.800,0.013,0.026,-0.952,0.276,0.07,0.16,-0.11,-0.046,-0.035,-0.057
2026-09-02 07:30:21.900,0.013,0.026,-0.952,0.276,0.36,0.24,0.13,-0.01,0.064,0.003
2026-09-02 07:30:22.000,0.013,0.026,-0.952,0.276,0.21,-0.08,0.06,-0.02,0.037,-0.152
2026-09-02 07:30:22.100,0.013,0.026,-0.952,0.276,-0.01,-0.25,-0.02,0.004,-0.015,-0.014
2026-09-02 07:30:22.200,0.013,0.025,-0.952,0.276,-0.01,-0.04,-0.1,-0.017,-0.002,-0.176
2026-09-02 07:30:22.300,0.014,0.025,-0.952,0.276,0.13,0.13,-0.04,-0.047,-0.014,-0.017
2026-09-02 07:30:22.400,0.014,0.025,-0.952,0.276,0.05,-0.0,-0.01,0.053,-0.043,0.021
2026-09-02 07:30:22.500,0.014,0.025,-0.952,0.276,0.09,-0.03,-0.02,-0.06,0.033,-0.004
2026-09-02 07:30:22.600,0.014,0.025,-0.952,0.276,0.33,-0.14,0.1,0.049,-0.064,-0.01
2026-09-02 07:30:22.700,0.014,0.025,-0.952,0.276,0.15,0.12,-0.2,-0.093,-0.026,-0.089
2026-09-02 07:30:22.800,0.014,0.025,-0.952,0.276,0.31,-0.02,0.21,-0.002,-0.01,0.007
2026-09-02 07:30:22.900,0.014,0.025,-0.952,0.276,-0.02,-0.02,-0.16,-0.007,-0.059,-0.035
2026-09-02 07:30:23.000,0.014,0.025,-0.952,0.276,0.06,0.04,0.07,0.052,-0.042,-0.055
2026-09-02 07:30:23.100,0.014,0.025,-0.952,0.276,-0.05,0.03,-0.12,-0.106,-0.055,0.14
2026-09-02 07:30:23.200,0.014,0.025,-0.952,0.276,0.15,-0.03,0.37,-0.008,-0.035,-0.128
2026-09-02 07:30:23.300,0.014,0.025,-0.952,0.276,-0.22,0.14,-0.13,0.054,-0.008,-0.022
2026-09-02 07:30:23.400,0.014,0.025,-0.952,0.276,0.05,0.13,-0.2,0.008,0.048,-0.115
2026-09-02 07:30:23.500,0.014,0.025,-0.952,0.276,-0.03,-0.17,-0.18,-0.014,0.036,-0.032
2026-09-02 07:30:23.600,0.014,0.025,-0.952,0.276,-0.01,-0.03,-0.16,-0.039,-0.038,-0.001
2026-09-02 07:30:23.700,0.014,0.025,-0.952,0.276,-0.14,0.18,-0.23,-0.085,0.026,0.012
2026-09-02 07:30:23.800,0.014,0.025,-0.952,0.276,0.0,-0.05,-0.11,-0.02,0.021,-0.001
2026-09-02 07:30:23.900,0.014,0.025,-0.952,0.276,-0.03,-0.01,0.37,0.003,0.037,0.183
2026-09-02 07:30:24.000,0.014,0.025,-0.952,0.276,0.05,-0.36,0.02,-0.067,-0.034,-0.005
2026-09-02 07:30:24.100,0.014,0.025,-0.952,0.276,0.07,0.24,-0.06,0.054,-0.027,0.079
2026-09-02 07:30:24.200,0.014,0.025,-0.952,0.276,0.14,0.12,-0.29,-0.026,-0.052,0.18
2026-09-02 07:30:24.300,0.014,0.025,-0.952,0.276,-0.02,0.03,0.11,-0.051,0.074,-0.232
2026-09-02 07:30:24.400,0.015,0.025,-0.952,0.276,0.02,-0.49,-0.03,-0.049,0.079,0.082
2026-09-02 07:30:24.500,0.015,0.025,-0.952,0.276,0.12,0.35,0.15,-0.003,-0.05,0.041
2026-09-02 07:30:24.600,0.015,0.025,-0.952,0.276,-0.25,-0.24,-0.08,0.013,-0.07,0.066
2026-09-02 07:30:24.700,0.015,0.024,-0.952,0.276,0.01,-0.3,0.03,0.008,-0.037,-0.061
2026-09-02 07:30:24.800,0.015,0.024,-0.952,0.275,0.29,0.05,0.03,-0.013,0.032,0.06
2026-09-02 07:30:24.900,0.015,0.024,-0.952,0.275,0.07,-0.18,-0.14,0.069,0.072,0.006
2026-09-02 07:30:25.000,0.015,0.024,-0.952,0.275,-0.26,-0.08,0.04,-0.064,-0.1,0.072
2026-09-02 07:30:25.100,0.015,0.024,-0.952,0.275,0.03,-0.01,-0.13,-0.041,0.029,-0.033
2026-09-02 07:30:25.200,0.015,0.024,-0.952,0.275,-0.15,-0.25,-0.05,-0.031,0.015,0.015
2026-09-02 07:30:25.300,0.015,0.024,-0.952,0.275,-0.14,0.09,0.29,-0.008,0.017,-0.046
2026-09-02 07:30:25.400,0.015,0.024,-0.951,0.275,0.02,0.14,-0.07,-0.033,0.012,0.031
2026-09-02 07:30:25.500,0.015,0.024,-0.951,0.275,0.06,-0.05,0.21,0.066,0.069,-0.125
2026-09-02 07:30:25.600,0.015,0.024,-0.951,0.275,0.16,-0.12,-0.06,-0.042,0.002,-0.003
2026-09-02 07:30:25.700,0.015,0.024,-0.951,0.275,-0.19,0.05,0.22,0.139,0.067,0.119
2026-09-02 07:30:25.800,0.015,0.024,-0.951,0.275,0.15,0.06,0.04,-0.015,0.058,0.137
2026-09-02 07:30:25.900,0.015,0.024,-0.951,0.275,0.14,0.16,0.05,-0.016,-0.057,0.024
2026-09-02 07:30:26.000,0.015,0.024,-0.951,0.275,-0.01,0.06,-0.13,-0.006,-0.025,0.071
2026-09-02 07:30:26.100,0.015,0.024,-0.951,0.275,-0.17,0.19,-0.35,-0.101,-0.018,0.054
2026-09-02 07:30:26.200,0.015,0.024,-0.951,0.275,-0.07,0.21,-0.23,0.059,-0.017,0.036
2026-09-02 07:30:26.300,0.015,0.024,-0.951,0.275,0.01,-0.19,0.14,-0.074,0.036,-0.076
2026-09-02 07:30:26.400,0.015,0.024,-0.951,0.275,0.03,0.0,-0.11,0.069,0.05,-0.029
2026-09-02 07:30:26.500,0.015,0.024,-0.951,0.275,0.02,0.12,0.01,-0.027,0.04,-0.112
2026-09-02 07:30:26.600,0.015,0.024,-0.951,0.275,0.22,0.08,-0.11,0.019,-0.069,0.004
2026-09-02 07:30:26.700,0.016,0.024,-0.951,0.275,0.05,-0.03,0.01,-0.035,-0.02,0.062
2026-09-02 07:30:26.800,0.016,0.024,-0.951,0.275,0.08,0.24,0.09,0.105,0.045,0.023
2026-09-02 07:30:26.900,0.016,0.023,-0.951,0.275,0.12,0.61,0.05,-0.015,0.052,-0.107
2026-09-02 07:30:27.000,0.016,0.023,-0.951,0.275,-0.02,-0.15,-0.1,-0.063,-0.015,-0.204
2026-09-02 07:30:27.100,0.016,0.023,-0.951,0.275,-0.17,-0.34,-0.13,0.015,0.017,0.076
2026-09-02 07:30:27.200,0.016,0.023,-0.951,0.275,-0.09,0.1,0.08,0.001,0.07,-0.059
2026-09-02 07:30:27.300,0.016,0.023,-0.951,0.275,0.22,-0.07,-0.03,-0.001,0.013,0.014
2026-09-02 07:30:27.400,0.016,0.023,-0.951,0.275,0.09,0.27,0.06,-0.059,0.014,0.102
2026-09-02 07:30:27.500,0.016,0.023,-0.951,0.275,0.16,0.13,-0.35,-0.031,-0.047,-0.059
2026-09-02 07:30:27.600,0.016,0.023,-0.951,0.275,0.28,0.01,-0.19,0.05,0.007,0.03
2026-09-02 07:30:27.700,0.016,0.023,-0.951,0.274,-0.15,-0.07,-0.07,0.044,0.013,-0.034
2026-09-02 07:30:27.800,0.016,0.023,-0.951,0.274,0.1,-0.02,-0.16,-0.069,-0.005,0.009
2026-09-02 07:30:27.900,0.016,0.023,-0.951,0.274,0.04,0.13,0.14,-0.064,-0.005,0.019
2026-09-02 07:30:28.000,0.016,0.023,-0.951,0.274,-0.21,-0.28,-0.21,-0.015,-0.028,0.045
2026-09-02 07:30:28.100,0.016,0.023,-0.951,0.274,0.1,-0.34,0.1,0.04,0.05,-0.042
2026-09-02 07:30:28.200,0.016,0.023,-0.951,0.274,0.11,0.34,0.2,-0.052,0.003,-0.111
2026-09-02 07:30:28.300,0.016,0.023,-0.951,0.274,0.13,0.04,0.21,0.079,-0.032,-0.155
2026-09-02 07:30:28.400,0.016,0.023,-0.951,0.274,-0.25,0.08,-0.25,-0.02,-0.057,0.067
2026-09-02 07:30:28.500,0.016,0.023,-0.951,0.274,0.17,0.38,-0.02,-0.034,-0.087,0.093
2026-09-02 07:30:28.600,0.016,0.023,-0.951,0.274,0.39,0.1,0.07,-0.03,-0.095,0.087
2026-09-02 07:30:28.700,0.016,0.023,-0.951,0.274,-0.04,-0.17,0.24,0.008,-0.02,-0.031
2026-09-02 07:30:28.800,0.016,0.023,-0.951,0.274,0.2,0.24,-0.27,0.097,-0.017,0.152
2026-09-02 07:30:28.900,0.016,0.023,-0.951,0.274,0.13,0.16,-0.08,0.068,-0.001,-0.083
2026-09-02 07:30:29.000,0.016,0.022,-0.951,0.274,-0.03,-0.28,-0.17,0.096,0.016,0.115
2026-09-02 07:30:29.100,0.016,0.022,-0.951,0.274,-0.13,-0.0,-0.05,0.062,0.06,-0.023
2026-09-02 07:30:29.200,0.017,0.022,-0.951,0.274,0.26,0.14,0.07,-0.05,0.052,-0.041
2026-09-02 07:30:29.300,0.017,0.022,-0.951,0.274,0.11,-0.08,0.04,0.029,-0.039,0.003
2026-09-02 07:30:29.400,0.017,0.022,-0.951,0.274,0.17,0.06,0.07,0.019,0.075,0.086
2026-09-02 07:30:29.500,0.017,0.022,-0.951,0.274,-0.09,-0.35,-0.05,0.137,-0.039,-0.051
2026-09-02 07:30:29.600,0.017,0.022,-0.951,0.274,-0.16,0.23,0.22,-0.072,-0.063,-0.131
2026-09-02 07:30:29.700,0.017,0.022,-0.951,0.274,-0.01,-0.01,-0.13,-0.004,-0.038,0.095
2026-09-02 07:30:29.800,0.017,0.022,-0.951,0.274,-0.01,-0.11,0.08,0.046,-0.03,-0.134
2026-09-02 07:30:29.900,0.017,0.022,-0.951,0.274,-0.07,-0.14,-0.11,0.118,0.021,0.004
2026-09-02 07:30:30.000,0.017,0.022,-0.951,0.274,-0.0,-0.02,-0.17,-0.109,-0.069,-0.002
2026-09-02 07:30:30.100,0.017,0.022,-0.951,0.274,-0.14,0.07,-0.08,-0.006,0.013,0.11
2026-09-02 07:30:30.200,0.017,0.022,-0.951,0.274,0.13,0.24,0.06,0.002,-0.034,0.007
2026-09-02 07:30:30.300,0.017,0.022,-0.951,0.274,0.19,-0.02,-0.18,-0.038,0.001,-0.041
2026-09-02 07:30:30.400,0.017,0.022,-0.951,0.273,-0.08,-0.1,0.01,-0.044,0.003,-0.053
2026-09-02 07:30:30.500,0.017,0.022,-0.951,0.273,0.11,-0.06,0.07,0.009,0.045,-0.014
2026-09-02 07:30:30.600,0.017,0.022,-0.951,0.273,0.02,-0.14,-0.32,0.014,0.042,0.0
2026-09-02 07:30:30.700,0.017,0.022,-0.951,0.273,0.18,0.06,-0.2,-0.013,0.048,0.175
2026-09-02 07:30:30.800,0.017,0.022,-0.951,0.273,-0.25,-0.06,0.01,-0.077,-0.028,0.088
2026-09-02 07:30:30.900,0.017,0.021,-0.951,0.273,-0.03,0.03,-0.05,0.026,0.046,0.098
2026-09-02 07:30:31.000,0.017,0.021,-0.951,0.273,0.03,-0.47,0.01,-0.022,0.008,-0.133
2026-09-02 07:30:31.100,0.017,0.021,-0.951,0.273,-0.16,-0.15,-0.13,-0.02,0.009,0.042
2026-09-02 07:30:31.200,0.017,0.021,-0.951,0.273,-0.24,-0.0,-0.16,0.037,0.038,0.287
2026-09-02 07:30:31.300,0.017,0.021,-0.951,0.273,-0.03,0.01,0.18,-0.045,0.006,0.02
2026-09-02 07:30:31.400,0.017,0.021,-0.95,0.273,-0.17,0.13,-0.18,0.09,-0.004,-0.093
2026-09-02 07:30:31.500,0.017,0.021,-0.95,0.273,0.05,0.13,0.01,0.077,0.029,-0.01
2026-09-02 07:30:31.600,0.017,0.021,-0.95,0.273,0.21,0.2,-0.18,0.027,0.031,-0.063
2026-09-02 07:30:31.700,0.017,0.021,-0.95,0.273,0.1,0.04,0.16,-0.057,0.06,0.072
2026-09-02 07:30:31.800,0.017,0.021,-0.95,0.273,-0.12,-0.05,0.04,0.023,-0.065,-0.011
2026-09-02 07:30:31.900,0.017,0.021,-0.95,0.273,-0.01,-0.29,-0.06,0.044,0.054,0.118
2026-09-02 07:30:32.000,0.018,0.021,-0.95,0.273,-0.02,-0.03,-0.36,-0.041,-0.004,-0.01
2026-09-02 07:30:32.100,0.018,0.021,-0.95,0.273,0.02,0.19,-0.09,0.107,0.017,-0.129
2026-09-02 07:30:32.200,0.018,0.021,-0.95,0.273,-0.01,-0.27,0.12,-0.032,-0.047,-0.05
2026-09-02 07:30:32.300,0.018,0.021,-0.95,0.273,-0.08,-0.12,-0.05,0.078,-0.001,-0.06
2026-09-02 07:30:32.400,0.018,0.021,-0.95,0.273,-0.29,-0.1,-0.09,0.041,0.008,-0.104
2026-09-02 07:30:32.500,0.018,0.021,-0.95,0.273,0.29,-0.07,0.05,-0.068,-0.077,-0.011
2026-09-02 07:30:32.600,0.018,0.021,-0.95,0.273,-0.27,-0.03,0.01,0.018,0.064,0.06
2026-09-02 07:30:32.700,0.018,0.021,-0.95,0.273,-0.0,0.2,-0.04,0.009,0.016,-0.103
2026-09-02 07:30:32.800,0.018,0.02,-0.95,0.273,-0.02,-0.28,-0.0,0.035,-0.006,-0.096
2026-09-02 07:30:32.900,0.018,0.02,-0.95,0.273,-0.0,0.2,0.06,0.008,-0.082,-0.082
2026-09-02 07:30:33.000,0.018,0.02,-0.95,0.272,0.18,0.2,0.02,0.033,-0.019,-0.075
2026-09-02 07:30:33.100,0.018,0.02,-0.95,0.272,-0.15,0.06,-0.2,0.078,0.064,-0.015
2026-09-02 07:30:33.200,0.018,0.02,-0.95,0.272,0.25,-0.06,0.13,-0.042,-0.036,0.079
2026-09-02 07:30:33.300,0.018,0.02,-0.95,0.272,0.37,-0.14,0.1,-0.003,0.038,0.193
2026-09-02 07:30:33.400,0.018,0.02,-0.95,0.272,-0.12,0.1,0.1,0.071,-0.095,-0.103
2026-09-02 07:30:33.500,0.018,0.02,-0.95,0.272,0.07,0.02,0.15,0.082,-0.001,-0.048
2026-09-02 07:30:33.600,0.018,0.02,-0.95,0.272,0.04,-0.14,-0.01,-0.04,-0.007,0.047
2026-09-02 07:30:33.700,0.018,0.02,-0.95,0.272,0.12,-0.08,0.03,0.009,-0.052,0.122
2026-09-02 07:30:33.800,0.018,0.02,-0.95,0.272,-0.03,0.19,0.08,-0.022,0.078,-0.041
2026-09-02 07:30:33.900,0.018,0.02,-0.95,0.272,0.12,0.05,0.13,0.028,0.027,-0.068
2026-09-02 07:30:34.000,0.018,0.02,-0.95,0.272,0.23,-0.18,0.03,-0.024,0.016,0.035
2026-09-02 07:30:34.100,0.018,0.02,-0.95,0.272,-0.21,0.17,-0.14,0.006,-0.052,-0.056
2026-09-02 07:30:34.200,0.018,0.02,-0.95,0.272,0.13,-0.24,-0.02,0.006,-0.008,0.15
2026-09-02 07:30:34.300,0.018,0.02,-0.95,0.272,0.01,0.09,0.02,-0.001,0.024,-0.005
2026-09-02 07:30:34.400,0.018,0.02,-0.95,0.272,0.08,0.2,-0.08,0.032,0.033,0.028
2026-09-02 07:30:34.500,0.018,0.02,-0.95,0.272,0.11,0.03,0.24,-0.054,0.045,-0.039
2026-09-02 07:30:34.600,0.018,0.019,-0.95,0.272,-0.39,-0.61,0.23,-0.048,0.042,-0.019
2026-09-02 07:30:34.700,0.018,0.019,-0.95,0.272,-0.11,-0.32,0.12,-0.015,0.026,0.115
2026-09-02 07:30:34.800,0.018,0.019,-0.95,0.272,0.02,-0.26,-0.02,-0.074,-0.041,0.087
2026-09-02 07:30:34.900,0.018,0.019,-0.95,0.272,-0.01,-0.02,-0.24,-0.002,-0.051,-0.049
2026-09-02 07:30:35.000,0.018,0.019,-0.95,0.272,0.14,0.06,0.2,0.063,0.008,-0.012
2026-09-02 07:30:35.100,0.018,0.019,-0.95,0.272,-0.13,0.45,-0.05,-0.024,0.061,0.105
2026-09-02 07:30:35.200,0.018,0.019,-0.95,0.272,-0.3,-0.14,-0.04,0.008,-0.04,-0.057
2026-09-02 07:30:35.300,0.018,0.019,-0.95,0.272,0.01,0.07,-0.18,-0.051,-0.017,0.061
2026-09-02 07:30:35.400,0.018,0.019,-0.95,0.272,-0.01,0.01,0.08,0.045,0.007,-0.073
2026-09-02 07:30:35.500,0.019,0.019,-0.95,0.272,-0.13,0.21,-0.31,-0.02,0.044,0.015
2026-09-02 07:30:35.600,0.019,0.019,-0.95,0.271,0.14,-0.01,-0.04,0.048,0.064,0.019
2026-09-02 07:30:35.700,0.019,0.019,-0.95,0.271,-0.16,-0.06,0.11,-0.024,0.024,-0.083
2026-09-02 07:30:35.800,0.019,0.019,-0.95,0.271,-0.33,0.03,0.16,0.042,-0.007,-0.083
2026-09-02 07:30:35.900,0.019,0.019,-0.95,0.271,0.02,-0.08,-0.15,0.018,-0.006,0.103
2026-09-02 07:30:36.000,0.019,0.019,-0.95,0.271,-0.13,0.13,-0.13,0.097,0.061,0.13
2026-09-02 07:30:36.100,0.019,0.019,-0.95,0.271,-0.34,0.24,-0.21,-0.022,-0.045,0.031
2026-09-02 07:30:36.200,0.019,0.019,-0.95,0.271,-0.09,-0.14,-0.11,0.013,-0.003,-0.208
2026-09-02 07:30:36.300,0.019,0.018,-0.95,0.271,-0.14,0.12,-0.24,0.082,-0.041,0.021
2026-09-02 07:30:36.400,0.019,0.018,-0.95,0.271,0.1,-0.04,0.05,-0.025,-0.028,0.128
2026-09-02 07:30:36.500,0.019,0.018,-0.95,0.271,-0.14,0.01,-0.12,-0.071,0.059,-0.035
2026-09-02 07:30:36.600,0.019,0.018,-0.95,0.271,-0.09,0.39,0.06,0.027,0.096,-0.004
2026-09-02 07:30:36.700,0.019,0.018,-0.95,0.271,0.07,-0.09,-0.03,0.022,0.064,-0.008
2026-09-02 07:30:36.800,0.019,0.018,-0.95,0.271,-0.03,-0.01,0.1,-0.083,-0.052,-0.072
2026-09-02 07:30:36.900,0.019,0.018,-0.95,0.271,-0.15,-0.01,-0.35,-0.051,0.041,-0.177
2026-09-02 07:30:37.000,0.019,0.018,-0.95,0.271,0.06,0.32,0.36,0.089,-0.008,0.061
2026-09-02 07:30:37.100,0.019,0.018,-0.95,0.271,0.06,0.03,-0.2,-0.076,0.076,0.027
2026-09-02 07:30:37.200,0.019,0.018,-0.95,0.271,0.02,-0.36,0.04,0.021,-0.009,-0.029
2026-09-02 07:30:37.300,0.019,0.018,-0.95,0.271,-0.22,0.22,0.13,-0.002,-0.054,-0.023
2026-09-02 07:30:37.400,0.019,0.018,-0.95,0.271,-0.2,-0.1,0.19,-0.022,0.036,-0.032
2026-09-02 07:30:37.500,0.019,0.018,-0.95,0.271,-0.38,-0.06,0.24,0.023,0.036,-0.027
2026-09-02 07:30:37.600,0.019,0.018,-0.95,0.271,-0.05,0.21,-0.13,-0.081,0.002,0.033
2026-09-02 07:30:37.700,0.019,0.018,-0.95,0.271,-0.07,0.11,0.23,-0.005,0.024,-0.083
2026-09-02 07:30:37.800,0.019,0.018,-0.95,0.271,-0.11,0.04,0.17,-0.047,-0.051,0.088
2026-09-02 07:30:37.900,0.019,0.018,-0.95,0.271,-0.3,-0.11,0.2,-0.061,0.074,-0.02
2026-09-02 07:30:38.000,0.019,0.017,-0.95,0.271,-0.08,0.04,0.1,0.011,0.025,-0.131
2026-09-02 07:30:38.100,0.019,0.017,-0.95,0.27,-0.26,-0.51,-0.3,0.072,0.036,0.174
2026-09-02 07:30:38.200,0.019,0.017,-0.95,0.27,0.21,0.18,0.04,0.069,-0.023,0.05
2026-09-02 07:30:38.300,0.019,0.017,-0.95,0.27,-0.14,-0.13,0.28,-0.068,0.051,-0.058
2026-09-02 07:30:38.400,0.019,0.017,-0.95,0.27,-0.13,-0.01,0.02,-0.002,0.029,-0.069
2026-09-02 07:30:38.500,0.019,0.017,-0.95,0.27,0.15,0.04,0.1,0.011,0.056,0.144
2026-09-02 07:30:38.600,0.019,0.017,-0.95,0.27,-0.18,-0.09,-0.2,0.03,0.012,-0.005
2026-09-02 07:30:38.700,0.019,0.017,-0.95,0.27,0.06,0.11,0.04,-0.085,0.01,-0.053
2026-09-02 07:30:38.800,0.019,0.017,-0.95,0.27,0.01,0.11,-0.26,-0.033,0.043,-0.022
2026-09-02 07:30:38.900,0.019,0.017,-0.95,0.27,0.22,0.07,-0.23,-0.091,0.082,-0.02
2026-09-02 07:30:39.000,0.019,0.017,-0.95,0.27,0.03,0.02,-0.31,-0.018,-0.026,-0.037
2026-09-02 07:30:39.100,0.019,0.017,-0.95,0.27,-0.23,-0.15,-0.03,-0.075,0.045,-0.052
2026-09-02 07:30:39.200,0.019,0.017,-0.95,0.27,-0.15,0.01,0.14,-0.058,-0.057,-0.073
2026-09-02 07:30:39.300,0.019,0.017,-0.95,0.27,-0.04,-0.27,-0.22,-0.022,0.03,0.021
2026-09-02 07:30:39.400,0.019,0.017,-0.95,0.27,-0.19,-0.03,0.17,-0.032,0.049,-0.012
2026-09-02 07:30:39.500,0.019,0.017,-0.95,0.27,-0.23,-0.14,-0.16,0.026,-0.034,0.031
2026-09-02 07:30:39.600,0.019,0.016,-0.95,0.27,-0.17,-0.04,-0.04,-0.043,0.033,-0.007
2026-09-02 07:30:39.700,0.019,0.016,-0.95,0.27,-0.29,0.12,0.08,-0.011,-0.048,-0.116
2026-09-02 07:30:39.800,0.019,0.016,-0.95,0.27,-0.06,0.07,-0.09,0.08,0.048,-0.048
2026-09-02 07:30:39.900,0.019,0.016,-0.95,0.27,-0.04,-0.17,-0.32,0.048,-0.033,-0.015
2026-09-02 07:30:40.000,0.019,0.016,-0.95,0.27,-0.08,0.26,0.01,0.048,0.063,0.063
2026-09-02 07:30:40.100,0.019,0.016,-0.95,0.27,-0.11,0.02,-0.22,-0.048,0.045,-0.17
2026-09-02 07:30:40.200,0.019,0.016,-0.95,0.27,-0.29,-0.18,0.18,-0.062,0.081,-0.017
2026-09-02 07:30:40.300,0.019,0.016,-0.95,0.27,-0.16,0.2,0.01,-0.048,-0.089,-0.015
2026-09-02 07:30:40.400,0.019,0.016,-0.95,0.27,0.08,0.07,0.09,0.03,-0.06,-0.095
2026-09-02 07:30:40.500,0.02,0.016,-0.95,0.27,-0.34,0.2,0.07,0.023,-0.046,-0.124
2026-09-02 07:30:40.600,0.02,0.016,-0.95,0.269,-0.16,0.24,0.02,-0.013,-0.054,-0.136
2026-09-02 07:30:40.700,0.02,0.016,-0.95,0.269,-0.29,-0.08,-0.1,0.035,-0.043,-0.046
2026-09-02 07:30:40.800,0.02,0.016,-0.95,0.269,0.09,-0.17,0.11,0.059,0.053,0.017
2026-09-02 07:30:40.900,0.02,0.016,-0.95,0.269,-0.26,0.02,0.05,0.042,-0.007,0.06
2026-09-02 07:30:41.000,0.02,0.016,-0.95,0.269,-0.33,0.2,-0.06,-0.034,-0.075,-0.045
2026-09-02 07:30:41.100,0.02,0.016,-0.95,0.269,0.06,0.24,0.31,0.04,-0.031,-0.078
2026-09-02 07:30:41.200,0.02,0.015,-0.95,0.269,0.04,-0.05,-0.16,-0.035,-0.037,0.083
2026-09-02 07:30:41.300,0.02,0.015,-0.95,0.269,-0.27,-0.25,0.15,-0.005,0.113,0.1
2026-09-02 07:30:41.400,0.02,0.015,-0.95,0.269,0.29,-0.18,-0.14,0.066,-0.02,-0.074
2026-09-02 07:30:41.500,0.02,0.015,-0.95,0.269,0.14,-0.07,0.36,-0.008,0.015,0.066
2026-09-02 07:30:41.600,0.02,0.015,-0.95,0.269,0.07,0.11,0.22,-0.044,-0.022,-0.035
2026-09-02 07:30:41.700,0.02,0.015,-0.95,0.269,0.19,0.02,0.04,-0.044,0.045,-0.029
2026-09-02 07:30:41.800,0.02,0.015,-0.95,0.269,-0.21,-0.01,0.01,0.033,-0.065,0.111
2026-09-02 07:30:41.900,0.02,0.015,-0.95,0.269,-0.08,0.27,0.03,0.03,0.004,0.074
2026-09-02 07:30:42.000,0.02,0.015,-0.95,0.269,-0.04,0.16,-0.18,-0.039,-0.071,0.069
2026-09-02 07:30:42.100,0.02,0.015,-0.95,0.269,-0.07,-0.14,0.03,-0.002,0.019,0.041
2026-09-02 07:30:42.200,0.02,0.015,-0.95,0.269,-0.16,-0.02,0.03,-0.019,0.081,0.098
2026-09-02 07:30:42.300,0.02,0.015,-0.95,0.269,-0.24,-0.18,-0.02,0.065,0.011,-0.037
2026-09-02 07:30:42.400,0.02,0.015,-0.95,0.269,-0.24,0.1,-0.15,-0.008,0.016,0.087
2026-09-02 07:30:42.500,0.02,0.015,-0.95,0.269,-0.47,-0.38,-0.07,0.037,-0.05,0.092
2026-09-02 07:30:42.600,0.02,0.015,-0.95,0.269,-0.23,-0.05,-0.2,-0.051,-0.006,0.004
2026-09-02 07:30:42.700,0.02,0.014,-0.95,0.269,-0.35,-0.1,0.15,-0.027,-0.035,0.039
2026-09-02 07:30:42.800,0.02,0.014,-0.95,0.269,-0.11,-0.1,0.12,0.034,0.021,0.026
2026-09-02 07:30:42.900,0.02,0.014,-0.95,0.269,-0.13,0.05,0.14,-0.069,-0.005,-0.055
2026-09-02 07:30:43.000,0.02,0.014,-0.95,0.269,-0.27,-0.38,-0.1,0.002,0.002,-0.025
2026-09-02 07:30:43.100,0.02,0.014,-0.95,0.268,-0.17,-0.01,-0.27,-0.015,0.032,0.026
2026-09-02 07:30:43.200,0.02,0.014,-0.95,0.268,0.06,-0.17,0.0,-0.017,-0.011,-0.019
2026-09-02 07:30:43.300,0.02,0.014,-0.95,0.268,-0.12,0.08,-0.11,-0.022,0.063,0.057
2026-09-02 07:30:43.400,0.02,0.014,-0.95,0.268,-0.14,-0.08,0.06,-0.018,-0.041,0.058
2026-09-02 07:30:43.500,0.02,0.014,-0.95,0.268,-0.15,0.22,-0.12,0.094,0.07,0.109
2026-09-02 07:30:43.600,0.02,0.014,-0.95,0.268,-0.15,-0.37,0.09,-0.066,-0.016,0.165
2026-09-02 07:30:43.700,0.02,0.014,-0.95,0.268,-0.16,0.24,-0.36,-0.03,0.046,-0.064
2026-09-02 07:30:43.800,0.02,0.014,-0.95,0.268,-0.21,-0.08,-0.18,0.029,-0.015,-0.13
2026-09-02 07:30:43.900,0.02,0.014,-0.95,0.268,0.08,-0.13,0.01,0.031,0.013,0.143
2026-09-02 07:30:44.000,0.02,0.014,-0.95,0.268,-0.12,-0.14,-0.05,0.045,0.032,-0.074
2026-09-02 07:30:44.100,0.02,0.014,-0.95,0.268,-0.09,-0.14,-0.01,0.023,-0.004,-0.075
2026-09-02 07:30:44.200,0.02,0.013,-0.95,0.268,-0.09,0.0,-0.06,0.016,0.021,0.059
2026-09-02 07:30:44.300,0.02,0.013,-0.95,0.268,0.03,0.13,-0.16,-0.046,-0.071,0.017
2026-09-02 07:30:44.400,0.02,0.013,-0.95,0.268,-0.05,-0.05,-0.1,0.092,0.041,-0.138
2026-09-02 07:30:44.500,0.02,0.013,-0.95,0.268,-0.06,0.27,-0.06,-0.024,-0.004,0.047
2026-09-02 07:30:44.600,0.02,0.013,-0.95,0.268,-0.05,0.24,0.3,-0.059,0.022,-0.094
2026-09-02 07:30:44.700,0.02,0.013,-0.95,0.268,-0.3,-0.1,-0.01,0.066,0.057,0.059
2026-09-02 07:30:44.800,0.02,0.013,-0.95,0.268,0.02,-0.11,0.02,-0.04,0.046,-0.0
2026-09-02 07:30:44.900,0.02,0.013,-0.95,0.268,-0.24,0.2,0.18,0.023,0.014,0.042
2026-09-02 07:30:45.000,0.02,0.013,-0.95,0.268,-0.4,-0.16,0.21,-0.036,-0.018,-0.113
2026-09-02 07:30:45.100,0.02,0.013,-0.95,0.268,-0.22,0.2,0.25,0.09,-0.045,-0.083
2026-09-02 07:30:45.200,0.02,0.013,-0.95,0.268,-0.11,-0.05,-0.08,0.028,-0.07,-0.065
2026-09-02 07:30:45.300,0.02,0.013,-0.95,0.268,-0.27,-0.05,-0.27,-0.017,0.053,-0.007
2026-09-02 07:30:45.400,0.02,0.013,-0.95,0.268,-0.02,-0.02,-0.01,-0.045,0.053,0.103
2026-09-02 07:30:45.500,0.02,0.013,-0.95,0.268,-0.2,-0.06,-0.4,0.0,-0.002,0.091
2026-09-02 07:30:45.600,0.02,0.013,-0.95,0.267,-0.18,0.36,0.01,-0.024,0.061,-0.011
2026-09-02 07:30:45.700,0.02,0.012,-0.95,0.267,0.02,0.03,0.31,0.019,0.097,0.023
2026-09-02 07:30:45.800,0.02,0.012,-0.95,0.267,0.03,-0.13,-0.13,-0.134,0.04,0.11
2026-09-02 07:30:45.900,0.02,0.012,-0.95,0.267,-0.25,-0.34,-0.04,-0.047,-0.058,-0.07
2026-09-02 07:30:46.000,0.02,0.012,-0.95,0.267,-0.02,-0.26,-0.23,0.016,0.119,0.054
2026-09-02 07:30:46.100,0.02,0.012,-0.95,0.267,-0.27,-0.42,-0.22,-0.041,0.003,-0.037
2026-09-02 07:30:46.200,0.02,0.012,-0.95,0.267,-0.19,0.05,-0.08,0.031,0.027,0.021
2026-09-02 07:30:46.300,0.02,0.012,-0.95,0.267,-0.29,0.2,-0.08,-0.049,-0.048,0.046
2026-09-02 07:30:46.400,0.02,0.012,-0.95,0.267,0.07,0.15,0.02,-0.047,0.066,-0.06
2026-09-02 07:30:46.500,0.02,0.012,-0.95,0.267,-0.17,-0.07,0.07,-0.003,0.008,0.016
2026-09-02 07:30:46.600,0.02,0.012,-0.95,0.267,-0.01,0.08,-0.04,-0.108,-0.005,-0.032
2026-09-02 07:30:46.700,0.02,0.012,-0.95,0.267,0.03,0.08,-0.15,-0.036,-0.069,-0.027
2026-09-02 07:30:46.800,0.02,0.012,-0.95,0.267,-0.17,0.17,0.16,0.006,-0.085,-0.087
2026-09-02 07:30:46.900,0.02,0.012,-0.95,0.267,-0.24,-0.23,0.04,0.035,-0.046,0.045
2026-09-02 07:30:47.000,0.02,0.012,-0.95,0.267,-0.23,-0.01,0.24,0.034,0.024,-0.063
2026-09-02 07:30:47.100,0.02,0.011,-0.95,0.267,-0.27,0.15,0.03,0.005,0.02,-0.053
2026-09-02 07:30:47.200,0.02,0.011,-0.95,0.267,-0.41,-0.49,-0.26,0.007,-0.017,-0.06
2026-09-02 07:30:47.300,0.02,0.011,-0.951,0.267,-0.3,-0.12,0.26,-0.04,-0.026,-0.029
2026-09-02 07:30:47.400,0.02,0.011,-0.951,0.267,0.0,0.07,0.26,-0.054,-0.0,0.027
2026-09-02 07:30:47.500,0.02,0.011,-0.951,0.267,-0.19,0.18,-0.07,0.04,-0.021,0.034
2026-09-02 07:30:47.600,0.02,0.011,-0.951,0.267,-0.15,-0.02,-0.12,-0.073,-0.026,-0.031
2026-09-02 07:30:47.700,0.02,0.011,-0.951,0.267,-0.11,0.11,0.09,0.031,0.05,-0.018
2026-09-02 07:30:47.800,0.02,0.011,-0.951,0.267,-0.27,0.01,0.1,0.027,-0.072,-0.031
2026-09-02 07:30:47.900,0.02,0.011,-0.951,0.267,-0.2,-0.05,0.14,-0.025,-0.01,-0.024
2026-09-02 07:30:48.000,0.02,0.011,-0.951,0.267,-0.23,0.04,0.19,0.028,0.026,-0.046
2026-09-02 07:30:48.100,0.02,0.011,-0.951,0.267,-0.15,-0.03,0.09,-0.005,0.065,0.088
2026-09-02 07:30:48.200,0.02,0.011,-0.951,0.267,-0.4,0.26,-0.0,0.005,0.027,-0.01
2026-09-02 07:30:48.300,0.02,0.011,-0.951,0.266,-0.36,0.07,-0.01,0.019,-0.022,0.014
2026-09-02 07:30:48.400,0.02,0.011,-0.951,0.266,-0.34,0.19,-0.01,-0.094,0.023,0.156
2026-09-02 07:30:48.500,0.02,0.011,-0.951,0.266,-0.15,-0.24,-0.08,-0.044,-0.063,-0.011
2026-09-02 07:30:48.600,0.02,0.01,-0.951,0.266,0.24,-0.12,-0.22,-0.096,0.014,-0.08
2026-09-02 07:30:48.700,0.02,0.01,-0.951,0.266,-0.54,0.01,-0.08,-0.023,0.039,-0.11
2026-09-02 07:30:48.800,0.02,0.01,-0.951,0.266,-0.33,0.05,-0.19,-0.083,-0.036,-0.132
2026-09-02 07:30:48.900,0.02,0.01,-0.951,0.266,-0.22,-0.07,-0.08,0.053,-0.026,0.065
2026-09-02 07:30:49.000,0.02,0.01,-0.951,0.266,-0.27,-0.14,0.1,-0.094,0.01,-0.164
2026-09-02 07:30:49.100,0.02,0.01,-0.951,0.266,-0.45,-0.11,-0.04,0.009,-0.011,0.024
2026-09-02 07:30:49.200,0.02,0.01,-0.951,0.266,-0.38,-0.07,-0.06,-0.06,0.075,0.037
2026-09-02 07:30:49.300,0.02,0.01,-0.951,0.266,-0.15,0.03,0.02,-0.069,0.015,0.077
2026-09-02 07:30:49.400,0.02,0.01,-0.951,0.266,0.13,-0.08,0.13,0.004,-0.069,0.028
2026-09-02 07:30:49.500,0.02,0.01,-0.951,0.266,-0.17,-0.22,0.25,-0.031,0.011,0.043
2026-09-02 07:30:49.600,0.02,0.01,-0.951,0.266,-0.26,-0.21,-0.0,-0.022,-0.08,0.128
2026-09-02 07:30:49.700,0.02,0.01,-0.951,0.266,-0.08,-0.01,0.28,0.01,-0.087,0.035
2026-09-02 07:30:49.800,0.02,0.01,-0.951,0.266,-0.04,0.16,0.04,0.09,-0.058,0.056
2026-09-02 07:30:49.900,0.02,0.01,-0.951,0.266,-0.28,0.05,-0.0,0.027,0.024,0.133
2026-09-02 07:30:50.000,0.02,0.009,-0.951,0.266,-0.13,0.01,-0.0,-0.016,-0.02,0.043
2026-09-02 07:30:50.100,0.02,0.009,-0.951,0.266,-0.22,0.04,0.2,0.098,-0.028,0.121
2026-09-02 07:30:50.200,0.02,0.009,-0.951,0.266,-0.08,0.06,-0.23,0.017,0.068,0.045
2026-09-02 07:30:50.300,0.02,0.009,-0.951,0.266,-0.08,-0.26,-0.12,-0.028,-0.019,0.096
2026-09-02 07:30:50.400,0.02,0.009,-0.951,0.266,-0.08,0.04,-0.0,0.073,0.015,-0.063
2026-09-02 07:30:50.500,0.02,0.009,-0.951,0.266,-0.22,0.2,-0.12,-0.005,-0.066,-0.03
2026-09-02 07:30:50.600,0.02,0.009,-0.951,0.266,-0.18,-0.26,-0.04,0.04,-0.088,-0.037
2026-09-02 07:30:50.700,0.02,0.009,-0.951,0.266,-0.16,0.08,0.33,-0.026,-0.021,0.034
2026-09-02 07:30:50.800,0.02,0.009,-0.951,0.266,-0.43,-0.0,-0.01,0.067,-0.08,-0.191
2026-09-02 07:30:50.900,0.02,0.009,-0.951,0.266,-0.27,-0.17,0.13,0.064,0.026,0.173
2026-09-02 07:30:51.000,0.02,0.009,-0.951,0.265,-0.15,0.2,0.03,0.034,-0.01,-0.044
2026-09-02 07:30:51.100,0.02,0.009,-0.951,0.265,-0.18,0.11,-0.06,0.044,-0.054,-0.067
2026-09-02 07:30:51.200,0.02,0.009,-0.951,0.265,0.0,-0.13,0.03,0.04,-0.054,0.038
2026-09-02 07:30:51.300,0.02,0.009,-0.951,0.265,-0.07,0.06,-0.0,0.004,0.042,0.087
2026-09-02 07:30:51.400,0.02,0.008,-0.951,0.265,0.04,-0.08,0.01,-0.047,0.076,-0.048
2026-09-02 07:30:51.500,0.02,0.008,-0.951,0.265,-0.08,-0.0,0.0,0.007,-0.026,-0.086
2026-09-02 07:30:51.600,0.02,0.008,-0.951,0.265,-0.22,-0.18,0.12,0.054,0.014,0.005
2026-09-02 07:30:51.700,0.02,0.008,-0.951,0.265,-0.03,0.17,-0.26,-0.024,0.1,-0.125
2026-09-02 07:30:51.800,0.02,0.008,-0.951,0.265,-0.33,0.18,-0.18,0.044,0.076,0.015
2026-09-02 07:30:51.900,0.02,0.008,-0.951,0.265,-0.13,-0.13,-0.1,0.078,-0.019,0.013
2026-09-02 07:30:52.000,0.02,0.008,-0.951,0.265,-0.32,-0.22,-0.21,-0.061,0.031,0.037
2026-09-02 07:30:52.100,0.02,0.008,-0.951,0.265,-0.17,-0.06,-0.23,-0.039,0.015,0.179
2026-09-02 07:30:52.200,0.02,0.008,-0.951,0.265,-0.01,0.19,0.12,-0.001,-0.026,-0.054
2026-09-02 07:30:52.300,0.02,0.008,-0.951,0.265,-0.47,0.1,0.16,0.055,-0.006,-0.043
2026-09-02 07:30:52.400,0.02,0.008,-0.951,0.265,-0.24,0.14,0.13,-0.022,0.106,-0.14
2026-09-02 07:30:52.500,0.02,0.008,-0.951,0.265,-0.27,-0.41,-0.16,0.083,-0.047,0.113
2026-09-02 07:30:52.600,0.02,0.008,-0.951,0.265,-0.18,0.29,-0.03,0.101,0.025,0.13
2026-09-02 07:30:52.700,0.02,0.008,-0.951,0.265,-0.17,-0.12,0.04,-0.091,0.012,0.061
2026-09-02 07:30:52.800,0.02,0.007,-0.951,0.265,0.1,-0.25,0.17,-0.013,0.007,0.017
2026-09-02 07:30:52.900,0.02,0.007,-0.951,0.265,-0.32,0.28,0.0,0.043,-0.042,0.001
2026-09-02 07:30:53.000,0.02,0.007,-0.951,0.265,-0.01,0.28,0.01,-0.014,-0.015,-0.045
2026-09-02 07:30:53.100,0.02,0.007,-0.951,0.265,-0.24,0.15,0.14,0.019,-0.063,0.045
2026-09-02 07:30:53.200,0.02,0.007,-0.952,0.265,-0.51,0.31,0.06,0.005,-0.06,-0.05
2026-09-02 07:30:53.300,0.02,0.007,-0.952,0.265,-0.07,0.14,-0.22,-0.073,0.013,0.135
2026-09-02 07:30:53.400,0.02,0.007,-0.952,0.265,-0.19,-0.16,0.01,0.01,-0.04,0.028
2026-09-02 07:30:53.500,0.02,0.007,-0.952,0.265,-0.13,-0.33,0.38,-0.013,-0.012,-0.105
2026-09-02 07:30:53.600,0.02,0.007,-0.952,0.265,-0.04,0.02,-0.19,-0.008,0.057,-0.069
2026-09-02 07:30:53.700,0.02,0.007,-0.952,0.265,-0.1,-0.08,-0.14,-0.002,-0.103,0.005
2026-09-02 07:30:53.800,0.02,0.007,-0.952,0.265,-0.08,-0.19,-0.05,-0.026,0.006,-0.034
2026-09-02 07:30:53.900,0.019,0.007,-0.952,0.264,-0.21,-0.08,0.01,0.055,0.0,0.034
2026-09-02 07:30:54.000,0.019,0.007,-0.952,0.264,-0.17,0.12,-0.01,-0.067,0.012,0.07
2026-09-02 07:30:54.100,0.019,0.006,-0.952,0.264,-0.02,-0.14,-0.23,-0.071,-0.101,0.054
2026-09-02 07:30:54.200,0.019,0.006,-0.952,0.264,-0.22,-0.14,-0.1,0.082,-0.037,0.122
2026-09-02 07:30:54.300,0.019,0.006,-0.952,0.264,-0.36,0.27,-0.14,-0.098,0.055,0.154
2026-09-02 07:30:54.400,0.019,0.006,-0.952,0.264,-0.28,-0.42,0.13,-0.073,0.036,0.114
2026-09-02 07:30:54.500,0.019,0.006,-0.952,0.264,-0.07,0.32,-0.09,0.013,-0.01,0.162
2026-09-02 07:30:54.600,0.019,0.006,-0.952,0.264,-0.27,0.06,-0.23,0.062,-0.029,-0.076
2026-09-02 07:30:54.700,0.019,0.006,-0.952,0.264,-0.4,0.2,-0.13,-0.094,-0.015,0.09
2026-09-02 07:30:54.800,0.019,0.006,-0.952,0.264,-0.13,-0.05,-0.01,-0.045,-0.01,0.05
2026-09-02 07:30:54.900,0.019,0.006,-0.952,0.264,-0.33,-0.19,-0.03,0.026,0.067,0.064
2026-09-02 07:30:55.000,0.019,0.006,-0.952,0.264,-0.29,0.13,-0.04,-0.136,-0.077,-0.033
2026-09-02 07:30:55.100,0.019,0.006,-0.952,0.264,-0.4,-0.01,0.1,-0.002,-0.034,0.094
2026-09-02 07:30:55.200,0.019,0.006,-0.952,0.264,0.1,-0.03,0.06,0.034,0.029,0.244
2026-09-02 07:30:55.300,0.019,0.006,-0.952,0.264,-0.31,-0.03,-0.11,-0.078,-0.041,-0.049
2026-09-02 07:30:55.400,0.019,0.006,-0.952,0.264,-0.08,0.1,0.22,-0.009,-0.11,-0.067
2026-09-02 07:30:55.500,0.019,0.005,-0.952,0.264,-0.0,0.02,-0.28,0.101,-0.061,0.183
2026-09-02 07:30:55.600,0.019,0.005,-0.952,0.264,0.12,0.22,-0.08,-0.014,0.023,-0.121
2026-09-02 07:30:55.700,0.019,0.005,-0.952,0.264,-0.32,-0.02,0.01,0.017,0.033,-0.04
2026-09-02 07:30:55.800,0.019,0.005,-0.952,0.264,0.02,0.1,0.24,-0.006,-0.037,-0.012
2026-09-02 07:30:55.900,0.019,0.005,-0.952,0.264,-0.37,-0.19,0.15,0.025,0.043,0.046
2026-09-02 07:30:56.000,0.019,0.005,-0.952,0.264,-0.08,0.01,-0.13,0.024,0.025,0.016
2026-09-02 07:30:56.100,0.019,0.005,-0.952,0.264,-0.12,-0.41,-0.1,0.016,-0.025,-0.169
2026-09-02 07:30:56.200,0.019,0.005,-0.952,0.264,-0.39,-0.08,-0.19,-0.03,-0.022,0.003
2026-09-02 07:30:56.300,0.019,0.005,-0.952,0.264,-0.06,0.02,0.15,-0.009,0.01,0.023
2026-09-02 07:30:56.400,0.019,0.005,-0.952,0.264,-0.21,0.21,-0.12,0.022,-0.045,-0.045
2026-09-02 07:30:56.500,0.019,0.005,-0.952,0.264,0.01,-0.08,0.08,0.053,-0.041,0.032
2026-09-02 07:30:56.600,0.019,0.005,-0.952,0.264,-0.13,-0.03,0.1,0.012,-0.014,0.014
2026-09-02 07:30:56.700,0.019,0.005,-0.952,0.264,-0.44,0.07,0.02,0.133,-0.04,0.005
2026-09-02 07:30:56.800,0.019,0.005,-0.952,0.264,-0.16,-0.14,-0.18,-0.007,-0.051,0.098
2026-09-02 07:30:56.900,0.019,0.004,-0.952,0.264,-0.14,-0.5,0.0,0.027,-0.084,-0.033
2026-09-02 07:30:57.000,0.019,0.004,-0.952,0.263,-0.25,-0.01,-0.01,0.009,0.022,-0.083
2026-09-02 07:30:57.100,0.019,0.004,-0.952,0.263,-0.28,0.06,-0.08,0.029,-0.012,0.135
2026-09-02 07:30:57.200,0.019,0.004,-0.952,0.263,-0.35,-0.17,0.2,-0.069,-0.032,-0.012
2026-09-02 07:30:57.300,0.019,0.004,-0.952,0.263,-0.04,0.19,-0.2,0.017,0.088,0.169
2026-09-02 07:30:57.400,0.019,0.004,-0.953,0.263,-0.35,0.23,0.09,-0.015,-0.004,0.142
2026-09-02 07:30:57.500,0.019,0.004,-0.953,0.263,-0.26,-0.21,0.09,-0.022,0.013,-0.01
2026-09-02 07:30:57.600,0.019,0.004,-0.953,0.263,-0.27,0.4,-0.21,-0.019,0.023,0.033
2026-09-02 07:30:57.700,0.019,0.004,-0.953,0.263,-0.29,0.34,-0.08,0.005,0.131,0.068
2026-09-02 07:30:57.800,0.019,0.004,-0.953,0.263,-0.16,0.23,-0.08,0.073,-0.063,-0.039
2026-09-02 07:30:57.900,0.019,0.004,-0.953,0.263,-0.46,-0.16,-0.01,-0.016,0.034,0.014
2026-09-02 07:30:58.000,0.019,0.004,-0.953,0.263,-0.32,0.03,-0.12,-0.011,-0.004,0.079
2026-09-02 07:30:58.100,0.019,0.004,-0.953,0.263,-0.11,0.22,0.03,-0.025,-0.058,-0.028
2026-09-02 07:30:58.200,0.019,0.003,-0.953,0.263,0.02,-0.08,0.35,0.012,0.006,-0.034
2026-09-02 07:30:58.300,0.019,0.003,-0.953,0.263,-0.03,-0.02,0.1,0.02,0.045,0.114
2026-09-02 07:30:58.400,0.019,0.003,-0.953,0.263,-0.37,-0.04,-0.1,-0.067,0.036,-0.082
2026-09-02 07:30:58.500,0.019,0.003,-0.953,0.263,-0.3,-0.17,-0.09,0.0,-0.056,0.022
2026-09-02 07:30:58.600,0.019,0.003,-0.953,0.263,-0.31,-0.06,0.33,-0.008,0.074,0.133
2026-09-02 07:30:58.700,0.019,0.003,-0.953,0.263,-0.09,0.05,0.2,-0.09,-0.098,-0.054
2026-09-02 07:30:58.800,0.019,0.003,-0.953,0.263,-0.03,-0.01,-0.07,0.018,-0.053,-0.097
2026-09-02 07:30:58.900,0.018,0.003,-0.953,0.263,-0.26,-0.1,0.11,0.003,-0.03,-0.055
2026-09-02 07:30:59.000,0.018,0.003,-0.953,0.263,-0.42,0.09,0.2,0.016,-0.081,0.061
2026-09-02 07:30:59.100,0.018,0.003,-0.953,0.263,-0.31,0.07,0.28,0.046,0.057,-0.137
2026-09-02 07:30:59.200,0.018,0.003,-0.953,0.263,-0.1,-0.14,-0.12,-0.012,-0.011,-0.049
2026-09-02 07:30:59.300,0.018,0.003,-0.953,0.263,-0.29,0.25,-0.04,0.007,-0.032,0.05
2026-09-02 07:30:59.400,0.018,0.003,-0.953,0.263,-0.12,0.32,-0.02,0.06,0.035,-0.049
2026-09-02 07:30:59.500,0.018,0.002,-0.953,0.263,0.09,-0.08,-0.14,0.022,-0.007,-0.001
2026-09-02 07:30:59.600,0.018,0.002,-0.953,0.263,-0.33,0.11,0.07,-0.008,-0.005,0.089
2026-09-02 07:30:59.700,0.018,0.002,-0.953,0.263,-0.27,-0.14,-0.24,0.042,-0.025,0.113
2026-09-02 07:30:59.800,0.018,0.002,-0.953,0.263,-0.2,-0.22,0.17,-0.008,-0.016,-0.073
2026-09-02 07:30:59.900,0.018,0.002,-0.953,0.263,-0.13,-0.27,0.16,-0.023,0.104,0.001
2026-09-02 07:31:00.000,0.018,0.002,-0.953,0.263,-0.18,0.3,-0.07,0.043,-0.037,-0.04
2026-09-02 07:31:00.100,0.018,0.002,-0.953,0.263,-0.35,-0.25,0.13,0.001,-0.024,-0.129
2026-09-02 07:31:00.200,0.018,0.002,-0.953,0.263,-0.25,0.25,0.03,-0.064,-0.016,0.011
2026-09-02 07:31:00.300,0.018,0.002,-0.953,0.263,-0.46,-0.15,-0.07,0.11,0.003,0.06
2026-09-02 07:31:00.400,0.018,0.002,-0.953,0.263,-0.05,0.26,0.05,-0.007,0.066,-0.06
2026-09-02 07:31:00.500,0.018,0.002,-0.953,0.262,-0.29,0.0,0.07,0.003,-0.058,-0.097
2026-09-02 07:31:00.600,0.018,0.002,-0.953,0.262,-0.25,0.03,-0.07,-0.109,-0.089,0.02
2026-09-02 07:31:00.700,0.018,0.002,-0.953,0.262,-0.14,-0.11,0.24,0.055,0.002,0.059
2026-09-02 07:31:00.800,0.018,0.002,-0.953,0.262,-0.17,-0.34,0.23,0.016,0.038,0.056
2026-09-02 07:31:00.900,0.018,0.001,-0.954,0.262,-0.22,-0.01,0.07,-0.062,-0.009,-0.172
2026-09-02 07:31:01.000,0.018,0.001,-0.954,0.262,-0.24,0.09,0.29,-0.006,0.027,-0.075
2026-09-02 07:31:01.100,0.018,0.001,-0.954,0.262,-0.05,0.03,0.14,-0.019,0.019,0.036
2026-09-02 07:31:01.200,0.018,0.001,-0.954,0.262,-0.67,0.25,0.29,0.006,-0.022,0.089
2026-09-02 07:31:01.300,0.018,0.001,-0.954,0.262,-0.47,-0.06,-0.01,0.022,0.046,0.074
2026-09-02 07:31:01.400,0.018,0.001,-0.954,0.262,-0.35,-0.18,-0.32,-0.006,0.024,-0.105
2026-09-02 07:31:01.500,0.018,0.001,-0.954,0.262,-0.1,0.28,-0.05,-0.052,0.07,0.094
2026-09-02 07:31:01.600,0.018,0.001,-0.954,0.262,-0.05,-0.22,-0.38,-0.042,0.05,0.027
2026-09-02 07:31:01.700,0.018,0.001,-0.954,0.262,-0.35,0.22,-0.02,0.045,0.033,0.009
2026-09-02 07:31:01.800,0.018,0.001,-0.954,0.262,-0.12,-0.1,-0.04,0.032,0.013,0.137
2026-09-02 07:31:01.900,0.018,0.001,-0.954,0.262,-0.15,0.3,0.14,-0.016,0.033,-0.03
2026-09-02 07:31:02.000,0.018,0.001,-0.954,0.262,0.03,0.21,-0.04,0.037,-0.065,0.03
2026-09-02 07:31:02.100,0.018,0.001,-0.954,0.262,-0.39,0.08,0.06,-0.01,0.045,0.071
2026-09-02 07:31:02.200,0.018,0.0,-0.954,0.262,-0.38,-0.22,0.21,-0.13,-0.048,0.021
2026-09-02 07:31:02.300,0.017,0.0,-0.954,0.262,-0.03,-0.16,-0.13,0.028,0.045,-0.006
2026-09-02 07:31:02.400,0.017,0.0,-0.954,0.262,-0.39,-0.02,-0.06,0.027,0.009,0.0
2026-09-02 07:31:02.500,0.017,0.0,-0.954,0.262,-0.17,-0.55,-0.34,-0.03,0.049,0.035
2026-09-02 07:31:02.600,0.017,0.0,-0.954,0.262,-0.27,-0.09,-0.07,-0.032,-0.031,0.038
2026-09-02 07:31:02.700,0.017,0.0,-0.954,0.262,-0.2,0.16,0.15,-0.035,-0.038,0.04
2026-09-02 07:31:02.800,0.017,0.0,-0.954,0.262,-0.49,0.02,0.04,0.049,0.01,0.085
2026-09-02 07:31:02.900,0.017,-0.0,-0.954,0.262,-0.23,0.12,-0.09,-0.042,0.055,-0.078
2026-09-02 07:31:03.000,0.017,-0.0,-0.954,0.262,-0.09,-0.17,-0.05,-0.051,0.008,-0.086
2026-09-02 07:31:03.100,0.017,-0.0,-0.954,0.262,-0.2,-0.31,-0.08,0.014,-0.044,0.091
2026-09-02 07:31:03.200,0.017,-0.0,-0.954,0.262,-0.14,0.09,0.21,0.02,-0.004,0.073
2026-09-02 07:31:03.300,0.017,-0.0,-0.954,0.262,-0.39,0.16,-0.01,0.075,-0.022,0.099
2026-09-02 07:31:03.400,0.017,-0.0,-0.954,0.262,-0.24,0.11,0.17,0.029,-0.056,-0.024
2026-09-02 07:31:03.500,0.017,-0.001,-0.954,0.262,-0.21,0.14,-0.02,-0.01,-0.003,-0.095
2026-09-02 07:31:03.600,0.017,-0.001,-0.954,0.262,-0.21,-0.19,-0.07,-0.047,-0.014,-0.143
2026-09-02 07:31:03.700,0.017,-0.001,-0.954,0.262,0.01,-0.09,-0.05,-0.039,-0.04,0.077
2026-09-02 07:31:03.800,0.017,-0.001,-0.954,0.262,-0.0,0.17,-0.04,0.001,0.052,0.191
2026-09-02 07:31:03.900,0.017,-0.001,-0.954,0.262,-0.21,-0.04,0.25,0.017,-0.051,0.139
2026-09-02 07:31:04.000,0.017,-0.001,-0.955,0.262,-0.38,0.25,0.02,-0.026,0.062,0.05
2026-09-02 07:31:04.100,0.017,-0.001,-0.955,0.262,-0.12,-0.02,0.1,-0.072,0.043,-0.014
2026-09-02 07:31:04.200,0.017,-0.001,-0.955,0.262,-0.03,0.16,0.08,0.017,-0.098,0.012
2026-09-02 07:31:04.300,0.017,-0.001,-0.955,0.262,-0.04,-0.42,-0.0,0.048,-0.012,-0.042
2026-09-02 07:31:04.400,0.017,-0.001,-0.955,0.262,-0.15,-0.0,-0.04,0.016,0.009,-0.23
2026-09-02 07:31:04.500,0.017,-0.001,-0.955,0.262,-0.26,0.1,0.06,0.095,0.114,-0.015
2026-09-02 07:31:04.600,0.017,-0.001,-0.955,0.262,0.08,-0.19,-0.14,-0.007,-0.055,-0.026
2026-09-02 07:31:04.700,0.017,-0.001,-0.955,0.261,-0.29,0.14,0.07,0.111,0.072,0.053
2026-09-02 07:31:04.800,0.017,-0.001,-0.955,0.261,-0.2,0.05,0.09,0.012,-0.099,-0.079
2026-09-02 07:31:04.900,0.017,-0.002,-0.955,0.261,-0.45,-0.07,-0.1,-0.121,-0.039,-0.056
2026-09-02 07:31:05.000,0.017,-0.002,-0.955,0.261,-0.16,0.18,-0.05,0.027,0.123,-0.01
2026-09-02 07:31:05.100,0.017,-0.002,-0.955,0.261,0.06,-0.09,-0.05,-0.052,-0.07,-0.129
2026-09-02 07:31:05.200,0.016,-0.002,-0.955,0.261,-0.16,0.32,0.05,0.019,0.022,0.006
2026-09-02 07:31:05.300,0.016,-0.002,-0.955,0.261,-0.13,0.01,-0.06,-0.058,-0.006,0.165
2026-09-02 07:31:05.400,0.016,-0.002,-0.955,0.261,-0.29,0.07,-0.09,-0.062,0.04,-0.028
2026-09-02 07:31:05.500,0.016,-0.002,-0.955,0.261,-0.25,0.15,-0.08,-0.116,-0.149,-0.075
2026-09-02 07:31:05.600,0.016,-0.002,-0.955,0.261,-0.48,0.02,0.02,0.044,-0.012,-0.028
2026-09-02 07:31:05.700,0.016,-0.002,-0.955,0.261,-0.23,0.03,-0.12,0.077,-0.029,-0.055
2026-09-02 07:31:05.800,0.016,-0.002,-0.955,0.261,-0.06,-0.07,-0.02,-0.093,0.005,0.005
2026-09-02 07:31:05.900,0.016,-0.002,-0.955,0.261,-0.24,-0.14,-0.18,-0.048,0.118,0.081
2026-09-02 07:31:06.000,0.016,-0.002,-0.955,0.261,-0.37,0.0,0.08,0.041,0.039,0.026
2026-09-02 07:31:06.100,0.016,-0.002,-0.955,0.261,-0.2,0.31,-0.05,0.082,-0.06,0.019
2026-09-02 07:31:06.200,0.016,-0.003,-0.955,0.261,0.08,-0.45,0.22,0.051,-0.004,-0.012
2026-09-02 07:31:06.300,0.016,-0.003,-0.955,0.261,-0.21,-0.35,-0.14,-0.038,-0.057,-0.045
2026-09-02 07:31:06.400,0.016,-0.003,-0.955,0.261,-0.43,0.12,-0.19,0.037,0.006,0.107
2026-09-02 07:31:06.500,0.016,-0.003,-0.955,0.261,-0.16,0.24,-0.01,-0.097,0.033,0.036
2026-09-02 07:31:06.600,0.016,-0.003,-0.955,0.261,-0.33,0.07,0.11,0.106,-0.017,-0.009
2026-09-02 07:31:06.700,0.016,-0.003,-0.955,0.261,-0.31,-0.27,0.05,-0.052,0.066,0.01
2026-09-02 07:31:06.800,0.016,-0.003,-0.955,0.261,-0.31,-0.36,-0.04,0.037,-0.021,0.007
2026-09-02 07:31:06.900,0.016,-0.003,-0.956,0.261,-0.25,0.17,0.12,-0.014,-0.041,-0.014
2026-09-02 07:31:07.000,0.016,-0.003,-0.956,0.261,-0.06,-0.19,-0.02,0.076,0.005,-0.057
2026-09-02 07:31:07.100,0.016,-0.003,-0.956,0.261,-0.28,0.15,0.17,-0.079,0.029,0.003
2026-09-02 07:31:07.200,0.016,-0.003,-0.956,0.261,-0.15,0.07,-0.07,0.007,-0.023,-0.012
2026-09-02 07:31:07.300,0.016,-0.003,-0.956,0.261,-0.3,0.17,-0.22,-0.046,-0.052,-0.044
2026-09-02 07:31:07.400,0.016,-0.003,-0.956,0.261,-0.25,-0.02,0.17,-0.086,0.009,0.062
2026-09-02 07:31:07.500,0.016,-0.003,-0.956,0.261,-0.27,-0.33,-0.28,0.001,-0.055,0.016
2026-09-02 07:31:07.600,0.016,-0.004,-0.956,0.261,-0.02,0.34,-0.01,-0.029,0.114,-0.034
2026-09-02 07:31:07.700,0.015,-0.004,-0.956,0.261,-0.11,-0.47,0.17,0.082,0.038,0.183
2026-09-02 07:31:07.800,0.015,-0.004,-0.956,0.261,-0.27,0.01,-0.13,-0.01,0.052,-0.094
2026-09-02 07:31:07.900,0.015,-0.004,-0.956,0.261,-0.08,-0.18,0.13,0.012,-0.041,-0.026
2026-09-02 07:31:08.000,0.015,-0.004,-0.956,0.261,-0.33,0.25,0.1,-0.005,0.008,-0.178
2026-09-02 07:31:08.100,0.015,-0.004,-0.956,0.261,-0.22,-0.47,0.08,-0.013,-0.091,0.075
2026-09-02 07:31:08.200,0.015,-0.004,-0.956,0.261,0.1,0.23,0.08,0.048,-0.013,-0.062
2026-09-02 07:31:08.300,0.015,-0.004,-0.956,0.261,-0.15,-0.38,-0.04,0.015,-0.001,0.008
2026-09-02 07:31:08.400,0.015,-0.004,-0.956,0.261,-0.33,0.09,-0.27,0.007,-0.126,0.041
2026-09-02 07:31:08.500,0.015,-0.004,-0.956,0.261,-0.25,-0.07,0.17,0.048,0.014,-0.011
2026-09-02 07:31:08.600,0.015,-0.004,-0.956,0.261,-0.24,-0.07,0.23,-0.077,0.061,0.043
2026-09-02 07:31:08.700,0.015,-0.004,-0.956,0.261,-0.2,0.06,-0.06,-0.024,0.059,0.139
2026-09-02 07:31:08.800,0.015,-0.004,-0.956,0.261,0.1,-0.25,-0.03,0.054,-0.064,-0.002
2026-09-02 07:31:08.900,0.015,-0.005,-0.956,0.261,-0.28,0.08,0.02,0.018,-0.012,0.108
2026-09-02 07:31:09.000,0.015,-0.005,-0.956,0.261,-0.24,-0.35,0.28,0.024,-0.089,0.057
2026-09-02 07:31:09.100,0.015,-0.005,-0.956,0.261,-0.18,0.09,0.04,0.021,-0.031,0.035
2026-09-02 07:31:09.200,0.015,-0.005,-0.956,0.261,-0.22,-0.1,0.18,0.048,0.077,0.021
2026-09-02 07:31:09.300,0.015,-0.005,-0.956,0.261,0.04,0.62,-0.23,-0.014,-0.059,0.003
2026-09-02 07:31:09.400,0.015,-0.005,-0.956,0.261,-0.24,0.04,-0.05,-0.013,0.019,0.078
2026-09-02 07:31:09.500,0.015,-0.005,-0.956,0.261,-0.27,-0.17,0.27,0.024,0.024,-0.001
2026-09-02 07:31:09.600,0.015,-0.005,-0.956,0.261,-0.09,0.05,0.11,0.013,-0.019,-0.036
2026-09-02 07:31:09.700,0.015,-0.005,-0.957,0.261,-0.11,0.34,-0.08,-0.014,0.008,0.132
2026-09-02 07:31:09.800,0.015,-0.005,-0.957,0.261,-0.25,-0.08,0.14,-0.023,0.049,-0.021
2026-09-02 07:31:09.900,0.015,-0.005,-0.957,0.261,-0.32,-0.06,0.11,-0.04,0.04,0.052
2026-09-02 07:31:10.000,0.014,-0.005,-0.957,0.261,-0.23,0.22,-0.07,-0.013,-0.056,-0.12
2026-09-02 07:31:10.100,0.014,-0.005,-0.957,0.261,-0.18,-0.01,-0.01,-0.077,0.087,-0.05
2026-09-02 07:31:10.200,0.014,-0.005,-0.957,0.261,-0.19,0.05,-0.4,-0.064,0.012,0.017
2026-09-02 07:31:10.300,0.014,-0.006,-0.957,0.261,-0.13,-0.53,-0.11,0.043,-0.001,0.068
2026-09-02 07:31:10.400,0.014,-0.006,-0.957,0.261,-0.17,-0.08,0.39,-0.024,0.005,0.238
2026-09-02 07:31:10.500,0.014,-0.006,-0.957,0.261,-0.08,-0.2,-0.08,0.006,0.052,0.138
2026-09-02 07:31:10.600,0.014,-0.006,-0.957,0.261,-0.49,-0.11,0.1,0.107,-0.01,0.066
2026-09-02 07:31:10.700,0.014,-0.006,-0.957,0.26,-0.32,0.07,-0.22,-0.083,0.014,-0.014
2026-09-02 07:31:10.800,0.014,-0.006,-0.957,0.26,-0.06,0.03,-0.0,-0.095,0.047,-0.016
2026-09-02 07:31:10.900,0.014,-0.006,-0.957,0.26,-0.15,-0.19,-0.12,-0.023,-0.026,-0.08
2026-09-02 07:31:11.000,0.014,-0.006,-0.957,0.26,-0.25,-0.05,-0.26,0.061,0.049,0.021
2026-09-02 07:31:11.100,0.014,-0.006,-0.957,0.26,-0.13,-0.02,-0.05,0.062,-0.015,-0.056
2026-09-02 07:31:11.200,0.014,-0.006,-0.957,0.26,-0.05,0.07,0.25,-0.002,0.105,-0.016
2026-09-02 07:31:11.300,0.014,-0.006,-0.957,0.26,-0.42,0.25,-0.09,-0.003,0.007,0.239
2026-09-02 07:31:11.400,0.014,-0.006,-0.957,0.26,-0.09,0.06,-0.1,-0.044,-0.025,0.172
2026-09-02 07:31:11.500,0.014,-0.006,-0.957,0.26,-0.11,0.16,0.1,-0.014,0.06,-0.045
2026-09-02 07:31:11.600,0.014,-0.007,-0.957,0.26,-0.28,-0.07,-0.06,0.036,-0.016,-0.101
2026-09-02 07:31:11.700,0.014,-0.007,-0.957,0.26,-0.07,0.1,-0.08,-0.007,-0.001,0.088
2026-09-02 07:31:11.800,0.014,-0.007,-0.957,0.26,-0.33,0.17,0.03,0.033,0.054,-0.018
2026-09-02 07:31:11.900,0.014,-0.007,-0.957,0.26,-0.27,0.01,0.19,-0.017,0.014,-0.01
2026-09-02 07:31:12.000,0.014,-0.007,-0.957,0.26,-0.21,0.09,-0.09,-0.021,0.053,-0.148
2026-09-02 07:31:12.100,0.013,-0.007,-0.957,0.26,-0.38,-0.01,-0.03,0.071,-0.008,-0.067
2026-09-02 07:31:12.200,0.013,-0.007,-0.957,0.26,-0.45,0.14,-0.02,0.016,-0.076,0.125
2026-09-02 07:31:12.300,0.013,-0.007,-0.958,0.26,-0.11,0.33,-0.02,-0.041,0.03,0.15
2026-09-02 07:31:12.400,0.013,-0.007,-0.958,0.26,-0.22,0.04,0.15,0.06,0.002,0.05
2026-09-02 07:31:12.500,0.013,-0.007,-0.958,0.26,-0.23,-0.15,-0.09,0.041,0.012,0.025
2026-09-02 07:31:12.600,0.013,-0.007,-0.958,0.26,-0.06,0.1,-0.05,-0.091,0.042,0.089
2026-09-02 07:31:12.700,0.013,-0.007,-0.958,0.26,-0.21,0.01,-0.12,-0.049,0.082,0.011
2026-09-02 07:31:12.800,0.013,-0.007,-0.958,0.26,-0.08,-0.26,0.27,-0.041,-0.015,0.011
2026-09-02 07:31:12.900,0.013,-0.007,-0.958,0.26,-0.01,0.18,0.19,-0.003,0.033,0.038
2026-09-02 07:31:13.000,0.013,-0.008,-0.958,0.26,-0.1,-0.06,0.08,-0.106,0.031,0.017
2026-09-02 07:31:13.100,0.013,-0.008,-0.958,0.26,0.02,0.02,-0.07,0.035,0.09,0.074
2026-09-02 07:31:13.200,0.013,-0.008,-0.958,0.26,-0.24,0.08,-0.31,0.046,-0.009,-0.015
2026-09-02 07:31:13.300,0.013,-0.008,-0.958,0.26,-0.21,0.16,-0.02,-0.006,0.137,0.059
2026-09-02 07:31:13.400,0.013,-0.008,-0.958,0.26,-0.31,-0.11,-0.07,0.024,0.053,-0.082
2026-09-02 07:31:13.500,0.013,-0.008,-0.958,0.26,-0.1,-0.07,-0.12,-0.039,-0.063,0.076
2026-09-02 07:31:13.600,0.013,-0.008,-0.958,0.26,-0.27,-0.14,0.09,0.019,0.013,0.044
2026-09-02 07:31:13.700,0.013,-0.008,-0.958,0.26,-0.03,0.16,-0.11,-0.104,-0.028,0.005
2026-09-02 07:31:13.800,0.013,-0.008,-0.958,0.26,0.01,0.22,0.0,-0.047,0.061,0.033
2026-09-02 07:31:13.900,0.013,-0.008,-0.958,0.26,-0.29,0.18,0.11,0.105,0.084,0.068
2026-09-02 07:31:14.000,0.012,-0.008,-0.958,0.26,-0.07,-0.11,0.14,0.012,0.042,-0.008
2026-09-02 07:31:14.100,0.012,-0.008,-0.958,0.26,-0.19,0.14,0.13,0.016,0.082,0.012
2026-09-02 07:31:14.200,0.012,-0.008,-0.958,0.26,-0.1,-0.28,0.1,0.008,-0.078,-0.073
2026-09-02 07:31:14.300,0.012,-0.008,-0.958,0.26,-0.08,0.24,-0.31,0.005,-0.006,-0.011
2026-09-02 07:31:14.400,0.012,-0.009,-0.958,0.26,-0.02,0.05,-0.04,-0.054,0.039,0.006
2026-09-02 07:31:14.500,0.012,-0.009,-0.958,0.26,-0.33,-0.01,-0.03,-0.044,-0.073,-0.019
2026-09-02 07:31:14.600,0.012,-0.009,-0.958,0.26,-0.06,-0.36,-0.22,-0.019,-0.105,0.21
2026-09-02 07:31:14.700,0.012,-0.009,-0.958,0.26,-0.09,-0.21,-0.08,0.064,-0.012,0.03
2026-09-02 07:31:14.800,0.012,-0.009,-0.959,0.26,-0.32,0.06,-0.1,-0.047,0.059,-0.04
2026-09-02 07:31:14.900,0.012,-0.009,-0.959,0.26,-0.2,-0.2,-0.19,-0.032,0.117,0.008
2026-09-02 07:31:15.000,0.012,-0.009,-0.959,0.26,-0.23,0.09,-0.25,-0.007,0.044,-0.02
2026-09-02 07:31:15.100,0.012,-0.009,-0.959,0.26,-0.22,-0.26,-0.06,-0.021,-0.012,-0.066
2026-09-02 07:31:15.200,0.012,-0.009,-0.959,0.26,-0.29,0.37,0.07,0.032,0.056,-0.024
2026-09-02 07:31:15.300,0.012,-0.009,-0.959,0.26,-0.27,0.14,0.15,0.034,-0.019,-0.043
2026-09-02 07:31:15.400,0.012,-0.009,-0.959,0.26,-0.42,-0.28,0.01,0.064,0.0,-0.092
2026-09-02 07:31:15.500,0.012,-0.009,-0.959,0.26,-0.22,-0.06,-0.21,-0.011,0.015,0.051
2026-09-02 07:31:15.600,0.012,-0.009,-0.959,0.26,-0.69,-0.05,-0.05,0.008,0.042,0.172
2026-09-02 07:31:15.700,0.012,-0.009,-0.959,0.26,-0.14,0.02,0.19,0.026,0.016,-0.027
2026-09-02 07:31:15.800,0.012,-0.01,-0.959,0.26,-0.37,-0.18,0.04,0.039,-0.029,0.122
2026-09-02 07:31:15.900,0.011,-0.01,-0.959,0.26,0.04,0.02,0.02,0.086,0.049,0.027
2026-09-02 07:31:16.000,0.011,-0.01,-0.959,0.26,-0.3,-0.03,-0.11,0.021,0.046,-0.182
2026-09-02 07:31:16.100,0.011,-0.01,-0.959,0.26,-0.1,0.08,0.05,0.032,0.015,0.086
2026-09-02 07:31:16.200,0.011,-0.01,-0.959,0.26,-0.13,0.23,0.03,0.032,-0.016,-0.052
2026-09-02 07:31:16.300,0.011,-0.01,-0.959,0.26,-0.08,0.02,-0.15,-0.144,0.061,0.109
2026-09-02 07:31:16.400,0.011,-0.01,-0.959,0.26,-0.3,-0.57,-0.02,-0.03,-0.028,0.1
2026-09-02 07:31:16.500,0.011,-0.01,-0.959,0.26,-0.12,0.14,0.2,0.011,0.029,-0.058
2026-09-02 07:31:16.600,0.011,-0.01,-0.959,0.26,0.02,0.18,0.17,-0.071,0.065,-0.046
2026-09-02 07:31:16.700,0.011,-0.01,-0.959,0.26,-0.22,-0.0,-0.01,0.021,-0.068,0.083
2026-09-02 07:31:16.800,0.011,-0.01,-0.959,0.26,-0.17,-0.11,-0.04,-0.028,0.006,0.06
2026-09-02 07:31:16.900,0.011,-0.01,-0.959,0.26,-0.3,-0.37,0.17,-0.052,0.109,0.003
2026-09-02 07:31:17.000,0.011,-0.01,-0.959,0.26,-0.18,0.21,0.03,0.017,0.053,0.162
2026-09-02 07:31:17.100,0.011,-0.01,-0.959,0.26,-0.16,-0.15,0.05,-0.019,0.003,0.014
2026-09-02 07:31:17.200,0.011,-0.011,-0.959,0.26,-0.28,0.03,0.08,-0.086,-0.015,0.054
2026-09-02 07:31:17.300,0.011,-0.011,-0.96,0.26,-0.26,0.06,-0.11,0.004,0.081,-0.0
2026-09-02 07:31:17.400,0.011,-0.011,-0.96,0.26,-0.15,-0.07,0.02,0.032,0.035,0.011
2026-09-02 07:31:17.500,0.011,-0.011,-0.96,0.26,-0.38,-0.08,-0.12,-0.012,0.049,0.073
2026-09-02 07:31:17.600,0.011,-0.011,-0.96,0.26,-0.11,0.3,0.09,0.037,-0.004,-0.051
2026-09-02 07:31:17.700,0.01,-0.011,-0.96,0.26,-0.31,-0.12,0.19,-0.073,-0.034,0.14
2026-09-02 07:31:17.800,0.01,-0.011,-0.96,0.26,-0.11,-0.05,0.08,-0.046,0.064,0.113
2026-09-02 07:31:17.900,0.01,-0.011,-0.96,0.26,-0.07,-0.02,-0.13,0.032,0.044,-0.051
2026-09-02 07:31:18.000,0.01,-0.011,-0.96,0.26,-0.21,0.16,0.06,0.024,-0.067,-0.038
2026-09-02 07:31:18.100,0.01,-0.011,-0.96,0.26,0.03,0.06,0.16,0.038,0.042,0.106
2026-09-02 07:31:18.200,0.01,-0.011,-0.96,0.26,-0.28,-0.31,-0.1,0.003,0.027,0.013
2026-09-02 07:31:18.300,0.01,-0.011,-0.96,0.26,-0.17,0.21,0.04,0.008,-0.04,0.045
2026-09-02 07:31:18.400,0.01,-0.011,-0.96,0.26,0.05,-0.31,-0.06,-0.024,0.018,0.018
2026-09-02 07:31:18.500,0.01,-0.011,-0.96,0.26,-0.2,0.17,-0.02,-0.003,0.019,-0.067
2026-09-02 07:31:18.600,0.01,-0.012,-0.96,0.26,-0.06,0.3,0.25,0.027,0.049,-0.137
2026-09-02 07:31:18.700,0.01,-0.012,-0.96,0.26,-0.1,0.15,-0.34,-0.007,0.008,-0.113
2026-09-02 07:31:18.800,0.01,-0.012,-0.96,0.26,-0.04,-0.05,-0.01,0.013,0.008,0.093
2026-09-02 07:31:18.900,0.01,-0.012,-0.96,0.26,-0.23,0.02,0.14,0.066,0.021,0.029
2026-09-02 07:31:19.000,0.01,-0.012,-0.96,0.26,-0.19,-0.28,0.25,-0.011,-0.104,0.121
2026-09-02 07:31:19.100,0.01,-0.012,-0.96,0.26,-0.36,-0.04,0.12,-0.003,-0.059,0.081
2026-09-02 07:31:19.200,0.01,-0.012,-0.96,0.26,0.02,0.11,-0.06,-0.019,0.02,0.146
2026-09-02 07:31:19.300,0.01,-0.012,-0.96,0.26,0.07,-0.15,-0.05,0.029,0.016,-0.018
2026-09-02 07:31:19.400,0.009,-0.012,-0.96,0.26,-0.21,0.12,-0.05,0.055,0.087,-0.032
2026-09-02 07:31:19.500,0.009,-0.012,-0.96,0.26,-0.32,0.05,-0.05,-0.036,-0.007,-0.045
2026-09-02 07:31:19.600,0.009,-0.012,-0.96,0.26,0.15,-0.25,-0.01,-0.049,0.012,-0.127
2026-09-02 07:31:19.700,0.009,-0.012,-0.96,0.26,-0.24,0.12,-0.19,0.046,0.009,-0.146
2026-09-02 07:31:19.800,0.009,-0.012,-0.961,0.26,-0.0,-0.47,-0.03,0.069,-0.032,0.047
2026-09-02 07:31:19.900,0.009,-0.012,-0.961,0.26,-0.18,-0.1,-0.14,-0.022,0.021,-0.056
2026-09-02 07:31:20.000,0.009,-0.012,-0.961,0.26,-0.08,0.08,-0.08,-0.031,-0.061,0.095
2026-09-02 07:31:20.100,0.009,-0.013,-0.961,0.26,-0.27,-0.03,-0.01,0.01,-0.031,-0.006
2026-09-02 07:31:20.200,0.009,-0.013,-0.961,0.26,-0.17,-0.32,-0.21,0.022,-0.023,0.079
2026-09-02 07:31:20.300,0.009,-0.013,-0.961,0.26,0.05,-0.28,0.03,0.065,0.039,-0.058
2026-09-02 07:31:20.400,0.009,-0.013,-0.961,0.26,-0.04,0.15,-0.06,0.043,-0.065,0.043
2026-09-02 07:31:20.500,0.009,-0.013,-0.961,0.26,-0.05,-0.16,-0.19,-0.065,0.1,-0.176
2026-09-02 07:31:20.600,0.009,-0.013,-0.961,0.26,-0.15,0.12,0.11,0.011,0.034,-0.037
2026-09-02 07:31:20.700,0.009,-0.013,-0.961,0.26,0.0,0.15,0.08,-0.029,0.029,0.111
2026-09-02 07:31:20.800,0.009,-0.013,-0.961,0.26,0.05,0.32,0.18,0.063,0.001,-0.053
2026-09-02 07:31:20.900,0.009,-0.013,-0.961,0.26,-0.21,-0.27,0.11,0.022,0.017,0.014
2026-09-02 07:31:21.000,0.009,-0.013,-0.961,0.26,-0.27,0.2,-0.07,0.064,-0.11,0.165
2026-09-02 07:31:21.100,0.008,-0.013,-0.961,0.26,0.02,0.13,-0.12,0.015,-0.048,0.125
2026-09-02 07:31:21.200,0.008,-0.013,-0.961,0.26,0.01,0.06,-0.15,-0.055,-0.05,-0.007
2026-09-02 07:31:21.300,0.008,-0.013,-0.961,0.26,-0.19,-0.13,0.03,-0.054,-0.016,0.035
2026-09-02 07:31:21.400,0.008,-0.013,-0.961,0.26,-0.11,0.19,0.29,0.094,-0.003,-0.046
2026-09-02 07:31:21.500,0.008,-0.013,-0.961,0.26,-0.26,-0.03,-0.17,0.051,0.019,0.026
2026-09-02 07:31:21.600,0.008,-0.014,-0.961,0.26,-0.27,-0.25,0.02,-0.042,0.056,-0.024
2026-09-02 07:31:21.700,0.008,-0.014,-0.961,0.26,-0.09,0.03,-0.11,0.027,-0.043,0.055
2026-09-02 07:31:21.800,0.008,-0.014,-0.961,0.26,0.13,-0.17,0.1,0.032,0.026,0.07
2026-09-02 07:31:21.900,0.008,-0.014,-0.961,0.26,-0.23,0.3,-0.22,0.019,-0.033,0.068
2026-09-02 07:31:22.000,0.008,-0.014,-0.961,0.26,-0.02,0.15,-0.02,0.011,0.034,0.034
2026-09-02 07:31:22.100,0.008,-0.014,-0.961,0.26,-0.17,-0.03,0.02,-0.028,0.127,0.139
2026-09-02 07:31:22.200,0.008,-0.014,-0.961,0.26,-0.07,0.47,0.19,-0.022,0.109,0.013
2026-09-02 07:31:22.300,0.008,-0.014,-0.961,0.26,-0.14,0.71,0.16,-0.005,0.042,-0.032
2026-09-02 07:31:22.400,0.008,-0.014,-0.962,0.26,-0.17,0.01,-0.1,-0.025,0.13,0.084
2026-09-02 07:31:22.500,0.008,-0.014,-0.962,0.26,-0.04,0.32,-0.15,0.001,-0.009,-0.038
2026-09-02 07:31:22.600,0.008,-0.014,-0.962,0.26,0.13,-0.22,-0.22,-0.024,-0.004,-0.071
2026-09-02 07:31:22.700,0.008,-0.014,-0.962,0.26,-0.18,-0.01,0.02,-0.021,0.006,0.019
2026-09-02 07:31:22.800,0.007,-0.014,-0.962,0.26,-0.04,0.29,-0.05,0.065,0.016,-0.013
2026-09-02 07:31:22.900,0.007,-0.014,-0.962,0.26,-0.02,-0.52,-0.12,-0.046,0.009,0.108
2026-09-02 07:31:23.000,0.007,-0.014,-0.962,0.26,0.12,0.14,-0.13,-0.001,-0.081,-0.083
2026-09-02 07:31:23.100,0.007,-0.015,-0.962,0.26,0.12,0.04,0.29,0.025,-0.045,-0.014
2026-09-02 07:31:23.200,0.007,-0.015,-0.962,0.26,-0.0,-0.32,0.07,-0.038,0.03,0.011
2026-09-02 07:31:23.300,0.007,-0.015,-0.962,0.26,-0.3,-0.38,0.01,0.057,0.008,-0.025
2026-09-02 07:31:23.400,0.007,-0.015,-0.962,0.26,-0.06,-0.37,-0.03,-0.014,-0.002,-0.063
2026-09-02 07:31:23.500,0.007,-0.015,-0.962,0.26,-0.02,-0.28,0.06,0.032,0.063,0.06
2026-09-02 07:31:23.600,0.007,-0.015,-0.962,0.26,-0.29,0.1,0.14,-0.039,-0.033,0.091
2026-09-02 07:31:23.700,0.007,-0.015,-0.962,0.26,-0.37,0.34,0.05,0.038,0.012,-0.094
2026-09-02 07:31:23.800,0.007,-0.015,-0.962,0.26,0.25,-0.03,0.15,-0.002,-0.03,-0.034
2026-09-02 07:31:23.900,0.007,-0.015,-0.962,0.26,0.17,0.12,0.01,-0.025,0.034,-0.122
2026-09-02 07:31:24.000,0.007,-0.015,-0.962,0.26,-0.14,0.11,0.05,0.039,0.019,-0.101
2026-09-02 07:31:24.100,0.007,-0.015,-0.962,0.26,-0.3,-0.12,-0.13,-0.039,-0.034,0.045
2026-09-02 07:31:24.200,0.007,-0.015,-0.962,0.26,0.24,0.42,0.06,0.015,-0.066,-0.106
2026-09-02 07:31:24.300,0.007,-0.015,-0.962,0.26,-0.13,-0.26,0.14,0.088,-0.044,0.031
2026-09-02 07:31:24.400,0.006,-0.015,-0.962,0.26,-0.26,-0.02,-0.02,0.002,0.013,-0.112
2026-09-02 07:31:24.500,0.006,-0.015,-0.962,0.26,-0.19,0.28,0.25,0.015,0.045,0.052
2026-09-02 07:31:24.600,0.006,-0.016,-0.962,0.26,-0.1,-0.14,0.09,0.045,-0.015,0.147
2026-09-02 07:31:24.700,0.006,-0.016,-0.962,0.26,-0.22,-0.04,0.02,0.037,0.046,0.107
2026-09-02 07:31:24.800,0.006,-0.016,-0.962,0.26,0.1,-0.28,-0.19,0.001,-0.017,-0.04
2026-09-02 07:31:24.900,0.006,-0.016,-0.963,0.26,-0.02,0.02,-0.0,-0.028,0.028,-0.01
2026-09-02 07:31:25.000,0.006,-0.016,-0.963,0.26,0.11,0.07,-0.13,0.111,-0.015,-0.014
2026-09-02 07:31:25.100,0.006,-0.016,-0.963,0.26,-0.05,0.16,0.16,-0.055,0.007,-0.009
2026-09-02 07:31:25.200,0.006,-0.016,-0.963,0.26,0.09,-0.23,0.1,0.065,-0.032,0.026
2026-09-02 07:31:25.300,0.006,-0.016,-0.963,0.26,-0.04,0.13,-0.06,-0.02,0.015,0.121
2026-09-02 07:31:25.400,0.006,-0.016,-0.963,0.26,-0.01,-0.16,-0.09,0.012,0.055,0.105
2026-09-02 07:31:25.500,0.006,-0.016,-0.963,0.26,-0.29,-0.07,-0.11,0.025,0.014,-0.077
2026-09-02 07:31:25.600,0.006,-0.016,-0.963,0.26,-0.14,-0.05,-0.12,0.013,0.015,0.053
2026-09-02 07:31:25.700,0.006,-0.016,-0.963,0.26,-0.05,-0.11,0.18,-0.0,-0.031,-0.005
2026-09-02 07:31:25.800,0.006,-0.016,-0.963,0.26,0.04,0.19,-0.12,-0.05,0.01,0.009
2026-09-02 07:31:25.900,0.005,-0.016,-0.963,0.26,0.21,-0.13,0.26,0.045,0.073,-0.035
2026-09-02 07:31:26.000,0.005,-0.016,-0.963,0.26,0.06,0.11,0.02,0.002,-0.033,0.191
2026-09-02 07:31:26.100,0.005,-0.016,-0.963,0.26,-0.2,-0.06,0.12,0.068,-0.005,0.028
2026-09-02 07:31:26.200,0.005,-0.017,-0.963,0.26,-0.11,0.14,-0.16,0.049,-0.046,-0.07
2026-09-02 07:31:26.300,0.005,-0.017,-0.963,0.26,-0.08,-0.07,0.28,-0.028,-0.002,0.018
2026-09-02 07:31:26.400,0.005,-0.017,-0.963,0.26,0.01,0.19,0.12,-0.037,-0.023,-0.035
2026-09-02 07:31:26.500,0.005,-0.017,-0.963,0.261,0.0,-0.23,-0.16,-0.021,0.008,0.051
2026-09-02 07:31:26.600,0.005,-0.017,-0.963,0.261,0.02,-0.07,-0.04,0.004,-0.005,-0.016
2026-09-02 07:31:26.700,0.005,-0.017,-0.963,0.261,0.02,0.25,-0.03,0.012,-0.074,-0.018
2026-09-02 07:31:26.800,0.005,-0.017,-0.963,0.261,-0.21,0.01,0.16,0.069,-0.031,0.039
2026-09-02 07:31:26.900,0.005,-0.017,-0.963,0.261,-0.26,0.0,0.04,-0.054,0.06,-0.062
2026-09-02 07:31:27.000,0.005,-0.017,-0.963,0.261,-0.0,-0.06,0.04,-0.029,-0.061,0.028
2026-09-02 07:31:27.100,0.005,-0.017,-0.963,0.261,0.02,0.1,-0.07,-0.021,-0.057,-0.002
2026-09-02 07:31:27.200,0.005,-0.017,-0.963,0.261,-0.51,-0.17,-0.05,0.013,0.06,-0.039
2026-09-02 07:31:27.300,0.005,-0.017,-0.963,0.261,-0.05,-0.17,0.26,0.01,0.114,0.02
2026-09-02 07:31:27.400,0.005,-0.017,-0.963,0.261,-0.01,0.42,0.31,-0.031,-0.017,0.003
2026-09-02 07:31:27.500,0.004,-0.017,-0.964,0.261,0.11,-0.19,-0.06,-0.018,-0.008,-0.029
2026-09-02 07:31:27.600,0.004,-0.017,-0.964,0.261,-0.13,-0.0,0.02,-0.001,-0.032,0.029
2026-09-02 07:31:27.700,0.004,-0.017,-0.964,0.261,-0.31,-0.06,0.16,-0.133,-0.005,-0.029
2026-09-02 07:31:27.800,0.004,-0.018,-0.964,0.261,0.02,-0.49,-0.23,-0.024,0.037,0.024
2026-09-02 07:31:27.900,0.004,-0.018,-0.964,0.261,-0.15,-0.31,-0.14,-0.015,-0.097,-0.025
2026-09-02 07:31:28.000,0.004,-0.018,-0.964,0.261,-0.16,0.1,0.03,0.071,0.047,0.14
2026-09-02 07:31:28.100,0.004,-0.018,-0.964,0.261,0.03,0.0,0.06,0.041,0.093,-0.012
2026-09-02 07:31:28.200,0.004,-0.018,-0.964,0.261,0.14,0.27,0.05,-0.003,-0.056,-0.015
2026-09-02 07:31:28.300,0.004,-0.018,-0.964,0.261,-0.1,-0.38,0.2,0.031,-0.038,-0.086
2026-09-02 07:31:28.400,0.004,-0.018,-0.964,0.261,-0.29,-0.1,0.2,-0.054,0.055,-0.025
2026-09-02 07:31:28.500,0.004,-0.018,-0.964,0.261,0.01,-0.14,0.15,0.054,0.081,0.018
2026-09-02 07:31:28.600,0.004,-0.018,-0.964,0.261,0.17,-0.09,0.03,0.037,0.107,0.069
2026-09-02 07:31:28.700,0.004,-0.018,-0.964,0.261,-0.32,0.01,0.14,0.003,0.057,0.109
2026-09-02 07:31:28.800,0.004,-0.018,-0.964,0.261,-0.03,0.19,0.12,-0.005,-0.073,0.016
2026-09-02 07:31:28.900,0.004,-0.018,-0.964,0.261,-0.12,-0.2,-0.05,-0.103,-0.081,-0.002
2026-09-02 07:31:29.000,0.003,-0.018,-0.964,0.261,-0.01,0.09,0.23,-0.033,-0.023,0.004
2026-09-02 07:31:29.100,0.003,-0.018,-0.964,0.261,-0.02,-0.27,0.05,-0.087,0.026,0.108
2026-09-02 07:31:29.200,0.003,-0.018,-0.964,0.261,0.11,-0.26,0.14,0.011,0.013,-0.137
2026-09-02 07:31:29.300,0.003,-0.018,-0.964,0.261,-0.06,-0.02,0.1,-0.037,0.036,-0.017
2026-09-02 07:31:29.400,0.003,-0.018,-0.964,0.261,-0.09,0.03,0.03,0.036,-0.036,0.056
2026-09-02 07:31:29.500,0.003,-0.019,-0.964,0.261,-0.09,0.13,-0.01,0.03,0.037,0.015
2026-09-02 07:31:29.600,0.003,-0.019,-0.964,0.261,0.13,-0.11,-0.12,0.014,0.0,-0.05
2026-09-02 07:31:29.700,0.003,-0.019,-0.964,0.261,-0.02,-0.18,-0.14,-0.024,0.059,0.13
2026-09-02 07:31:29.800,0.003,-0.019,-0.964,0.261,16.87,-0.34,-0.09,0.031,-0.06,0.121
2026-09-02 07:31:29.900,0.003,-0.019,-0.964,0.261,34.25,-0.22,-0.05,-0.059,0.013,-0.006
2026-09-02 07:31:30.000,0.003,-0.019,-0.964,0.261,15.58,0.28,0.21,0.072,0.05,-0.062
2026-09-02 07:31:30.100,0.003,-0.019,-0.964,0.261,-3.06,0.2,0.04,0.042,0.013,-0.073
2026-09-02 07:31:30.200,0.003,-0.019,-0.964,0.261,-2.99,0.06,-0.3,0.073,0.01,-0.056
2026-09-02 07:31:30.300,0.003,-0.019,-0.965,0.261,-3.17,0.1,0.23,-0.11,-0.073,0.038
2026-09-02 07:31:30.400,0.003,-0.019,-0.965,0.261,-3.08,0.06,0.05,-0.008,-0.029,0.081
2026-09-02 07:31:30.500,0.002,-0.019,-0.965,0.261,-3.14,0.36,0.11,0.018,0.03,0.018
2026-09-02 07:31:30.600,0.002,-0.019,-0.965,0.261,-3.22,-0.27,0.01,0.02,0.06,-0.052
2026-09-02 07:31:30.700,0.002,-0.019,-0.965,0.261,-3.25,0.08,-0.06,0.034,0.02,-0.098
2026-09-02 07:31:30.800,0.002,-0.019,-0.965,0.261,-3.01,0.23,-0.04,-0.015,0.01,-0.046
2026-09-02 07:31:30.900,0.002,-0.019,-0.965,0.261,-3.18,-0.22,-0.16,-0.029,-0.082,0.054
2026-09-02 07:31:31.000,0.002,-0.019,-0.965,0.261,-3.04,0.22,0.04,-0.008,0.023,0.199
2026-09-02 07:31:31.100,0.002,-0.019,-0.965,0.261,-2.98,0.25,-0.22,-0.013,-0.063,0.095
2026-09-02 07:31:31.200,0.002,-0.02,-0.965,0.261,-2.99,-0.01,-0.35,-0.021,-0.063,-0.038
2026-09-02 07:31:31.300,0.002,-0.02,-0.965,0.261,-3.05,0.29,-0.12,-0.01,0.028,-0.132
2026-09-02 07:31:31.400,0.002,-0.02,-0.965,0.261,-3.05,0.42,0.03,-0.073,-0.063,-0.112
2026-09-02 07:31:31.500,0.002,-0.02,-0.965,0.261,-2.77,0.15,-0.06,0.027,0.002,0.06
2026-09-02 07:31:31.600,0.002,-0.02,-0.965,0.261,-2.96,0.13,-0.4,0.042,-0.031,0.017
2026-09-02 07:31:31.700,0.002,-0.02,-0.965,0.261,-3.13,-0.17,-0.3,0.01,0.014,-0.002
2026-09-02 07:31:31.800,0.002,-0.02,-0.965,0.261,-3.18,-0.1,0.24,-0.044,-0.04,-0.025
2026-09-02 07:31:31.900,0.002,-0.02,-0.965,0.261,-3.03,-0.34,0.21,-0.046,-0.066,-0.026
2026-09-02 07:31:32.000,0.001,-0.02,-0.965,0.261,-3.12,-0.06,0.25,-0.002,0.084,0.119
2026-09-02 07:31:32.100,0.001,-0.02,-0.965,0.261,-3.15,0.0,-0.09,0.067,0.032,0.04
2026-09-02 07:31:32.200,0.001,-0.02,-0.965,0.261,-3.15,0.61,0.17,0.034,-0.014,-0.142
2026-09-02 07:31:32.300,0.001,-0.02,-0.965,0.261,-2.89,-0.28,0.09,0.033,0.087,-0.134
2026-09-02 07:31:32.400,0.001,-0.02,-0.965,0.261,-3.15,0.21,-0.09,-0.001,-0.078,0.069
2026-09-02 07:31:32.500,0.001,-0.02,-0.965,0.262,-3.13,-0.38,-0.04,0.021,0.04,0.019
2026-09-02 07:31:32.600,0.001,-0.02,-0.965,0.262,-2.79,-0.04,-0.32,0.026,-0.003,-0.118
2026-09-02 07:31:32.700,0.001,-0.02,-0.965,0.262,-3.03,0.13,-0.2,0.046,0.062,0.055
2026-09-02 07:31:32.800,0.001,-0.02,-0.965,0.262,-2.94,0.24,0.19,-0.022,0.024,-0.011
2026-09-02 07:31:32.900,0.001,-0.02,-0.965,0.262,-3.02,-0.04,-0.38,0.037,-0.003,-0.044
2026-09-02 07:31:33.000,0.001,-0.021,-0.965,0.262,-2.89,0.02,-0.4,0.008,-0.007,-0.043
2026-09-02 07:31:33.100,0.001,-0.021,-0.966,0.262,-2.95,-0.42,-0.1,-0.007,0.038,-0.185
2026-09-02 07:31:33.200,0.001,-0.021,-0.966,0.262,-3.23,0.02,0.17,-0.081,0.06,-0.025
2026-09-02 07:31:33.300,0.001,-0.021,-0.966,0.262,-3.1,0.34,0.08,-0.012,0.005,0.083
2026-09-02 07:31:33.400,0.001,-0.021,-0.966,0.262,-3.12,0.08,0.36,-0.059,-0.021,0.03
2026-09-02 07:31:33.500,0.0,-0.021,-0.966,0.262,-3.02,-0.14,-0.02,-0.019,-0.009,-0.024
2026-09-02 07:31:33.600,0.0,-0.021,-0.966,0.262,-3.01,-0.1,0.16,-0.034,0.045,0.054
2026-09-02 07:31:33.700,0.0,-0.021,-0.966,0.262,-3.11,-0.14,0.1,-0.077,-0.06,0.028
2026-09-02 07:31:33.800,0.0,-0.021,-0.966,0.262,-2.97,-0.01,-0.0,0.086,0.04,-0.019
2026-09-02 07:31:33.900,0.0,-0.021,-0.966,0.262,-3.14,0.15,-0.21,-0.021,-0.017,-0.037
2026-09-02 07:31:34.000,0.0,-0.021,-0.966,0.262,-3.01,-0.11,0.11,-0.1,-0.056,0.132
2026-09-02 07:31:34.100,0.0,-0.021,-0.966,0.262,-3.17,0.04,-0.1,0.019,-0.042,0.065
2026-09-02 07:31:34.200,0.0,-0.021,-0.966,0.262,-2.97,-0.04,-0.03,0.124,0.018,-0.079
2026-09-02 07:31:34.300,-0.0,-0.021,-0.966,0.262,-3.11,0.31,0.04,0.013,-0.007,-0.105
2026-09-02 07:31:34.400,-0.0,-0.021,-0.966,0.262,-3.45,0.12,-0.09,-0.079,-0.102,-0.099
2026-09-02 07:31:34.500,-0.0,-0.021,-0.966,0.262,-3.19,0.06,0.12,0.025,-0.102,-0.056
2026-09-02 07:31:34.600,-0.0,-0.021,-0.966,0.262,-3.05,0.32,0.31,-0.004,0.105,-0.087
2026-09-02 07:31:34.700,-0.0,-0.021,-0.966,0.262,-2.94,0.1,-0.11,0.032,0.023,-0.033
2026-09-02 07:31:34.800,-0.0,-0.022,-0.966,0.262,0.5,0.15,0.01,-0.02,-0.009,-0.042
2026-09-02 07:31:34.900,-0.0,-0.022,-0.966,0.262,4.16,0.26,-0.12,-0.015,-0.028,-0.002
2026-09-02 07:31:35.000,-0.001,-0.022,-0.966,0.262,1.97,0.08,0.19,-0.002,0.006,-0.063
2026-09-02 07:31:35.100,-0.001,-0.022,-0.966,0.262,0.38,-0.16,-0.19,-0.016,-0.021,-0.063
2026-09-02 07:31:35.200,-0.001,-0.022,-0.966,0.262,0.15,-0.12,0.03,0.069,-0.137,0.103
2026-09-02 07:31:35.300,-0.001,-0.022,-0.966,0.262,0.11,-0.26,-0.17,-0.04,0.008,0.023
2026-09-02 07:31:35.400,-0.001,-0.022,-0.966,0.262,0.31,-0.11,-0.29,-0.058,-0.042,0.157
2026-09-02 07:31:35.500,-0.001,-0.022,-0.966,0.262,0.33,0.0,-0.23,-0.026,-0.034,0.037
2026-09-02 07:31:35.600,-0.001,-0.022,-0.966,0.262,0.2,0.13,-0.01,-0.044,0.007,-0.001
2026-09-02 07:31:35.700,-0.001,-0.022,-0.966,0.262,0.19,0.07,-0.14,0.068,-0.063,0.026
2026-09-02 07:31:35.800,-0.001,-0.022,-0.966,0.262,0.03,0.04,0.06,-0.061,0.089,-0.011
2026-09-02 07:31:35.900,-0.001,-0.022,-0.966,0.262,0.25,-0.22,0.33,-0.003,-0.038,0.098
2026-09-02 07:31:36.000,-0.001,-0.022,-0.966,0.262,0.27,0.25,-0.12,0.127,-0.036,0.043
2026-09-02 07:31:36.100,-0.001,-0.022,-0.966,0.262,-0.1,0.27,-0.21,-0.035,-0.014,0.067
2026-09-02 07:31:36.200,-0.001,-0.022,-0.966,0.262,0.28,-0.35,0.22,0.022,0.08,0.072
2026-09-02 07:31:36.300,-0.001,-0.022,-0.967,0.262,0.3,-0.36,0.03,-0.124,-0.106,-0.083
2026-09-02 07:31:36.400,-0.001,-0.022,-0.967,0.262,0.15,0.41,-0.14,0.044,0.038,0.062
2026-09-02 07:31:36.500,-0.002,-0.022,-0.967,0.262,0.17,-0.01,-0.02,-0.005,-0.079,0.007
2026-09-02 07:31:36.600,-0.002,-0.022,-0.967,0.262,0.15,-0.18,-0.02,0.042,0.112,0.005
2026-09-02 07:31:36.700,-0.002,-0.022,-0.967,0.263,0.41,0.41,-0.19,0.101,-0.042,-0.069
2026-09-02 07:31:36.800,-0.002,-0.023,-0.967,0.263,0.66,0.3,-0.16,-0.117,0.016,-0.006
2026-09-02 07:31:36.900,-0.002,-0.023,-0.967,0.263,0.26,0.04,-0.02,-0.041,-0.014,0.042
2026-09-02 07:31:37.000,-0.002,-0.023,-0.967,0.263,0.13,0.0,0.2,0.005,-0.031,0.054
2026-09-02 07:31:37.100,-0.002,-0.023,-0.967,0.263,0.38,-0.26,0.05,-0.012,-0.008,-0.099
2026-09-02 07:31:37.200,-0.002,-0.023,-0.967,0.263,0.49,0.15,-0.06,0.05,0.031,-0.061
2026-09-02 07:31:37.300,-0.002,-0.023,-0.967,0.263,0.49,0.23,-0.02,-0.12,0.033,-0.036
2026-09-02 07:31:37.400,-0.002,-0.023,-0.967,0.263,-0.08,0.29,0.11,-0.07,0.027,-0.124
2026-09-02 07:31:37.500,-0.002,-0.023,-0.967,0.263,0.51,-0.13,-0.05,-0.017,-0.032,-0.174
2026-09-02 07:31:37.600,-0.002,-0.023,-0.967,0.263,0.3,0.03,0.31,-0.016,-0.001,-0.057
2026-09-02 07:31:37.700,-0.002,-0.023,-0.967,0.263,0.27,0.12,0.12,0.077,0.008,0.011
2026-09-02 07:31:37.800,-0.002,-0.023,-0.967,0.263,0.37,0.2,-0.1,-0.026,0.045,-0.059
2026-09-02 07:31:37.900,-0.002,-0.023,-0.967,0.263,0.38,-0.09,0.08,0.078,-0.026,-0.112
2026-09-02 07:31:38.000,-0.002,-0.023,-0.967,0.263,0.09,-0.22,-0.06,0.042,0.038,-0.079
2026-09-02 07:31:38.100,-0.003,-0.023,-0.967,0.263,0.28,-0.08,0.02,-0.065,-0.057,0.094
2026-09-02 07:31:38.200,-0.003,-0.023,-0.967,0.263,0.15,0.01,0.17,-0.047,-0.003,0.166
2026-09-02 07:31:38.300,-0.003,-0.023,-0.967,0.263,0.16,0.1,-0.07,-0.033,-0.084,-0.066
2026-09-02 07:31:38.400,-0.003,-0.023,-0.967,0.263,0.13,-0.06,0.03,-0.016,0.047,0.023
2026-09-02 07:31:38.500,-0.003,-0.023,-0.967,0.263,0.08,-0.0,-0.17,0.049,-0.019,-0.006
2026-09-02 07:31:38.600,-0.003,-0.023,-0.967,0.263,0.4,0.25,0.14,-0.007,-0.042,0.042
2026-09-02 07:31:38.700,-0.003,-0.023,-0.967,0.263,0.31,-0.2,-0.06,0.095,-0.02,0.07
2026-09-02 07:31:38.800,-0.003,-0.023,-0.967,0.263,-0.01,0.36,-0.04,0.028,-0.012,-0.063
2026-09-02 07:31:38.900,-0.003,-0.024,-0.967,0.263,0.35,0.1,-0.18,0.022,-0.013,-0.001
2026-09-02 07:31:39.000,-0.003,-0.024,-0.967,0.263,0.36,0.09,-0.09,0.064,-0.003,0.066
2026-09-02 07:31:39.100,-0.003,-0.024,-0.967,0.263,0.02,0.05,-0.23,0.066,-0.054,-0.01
2026-09-02 07:31:39.200,-0.003,-0.024,-0.967,0.263,0.04,-0.05,0.03,-0.006,0.019,0.071
2026-09-02 07:31:39.300,-0.003,-0.024,-0.967,0.263,0.28,-0.02,0.2,-0.114,-0.007,-0.017
2026-09-02 07:31:39.400,-0.003,-0.024,-0.967,0.263,0.31,-0.11,0.08,0.016,0.005,-0.013
2026-09-02 07:31:39.500,-0.003,-0.024,-0.967,0.263,0.34,-0.54,-0.01,0.012,-0.044,-0.032
2026-09-02 07:31:39.600,-0.004,-0.024,-0.967,0.263,0.18,0.11,0.09,-0.004,0.016,0.125
2026-09-02 07:31:39.700,-0.004,-0.024,-0.967,0.263,0.25,-0.13,0.05,-0.071,0.009,0.159
2026-09-02 07:31:39.800,-0.004,-0.024,-0.968,0.263,0.08,0.08,-0.04,-0.012,-0.005,0.02
2026-09-02 07:31:39.900,-0.004,-0.024,-0.968,0.263,0.21,0.06,-0.14,-0.105,-0.026,-0.007
2026-09-02 07:31:40.000,-0.004,-0.024,-0.968,0.263,0.01,0.06,-0.32,-0.044,-0.011,-0.106
2026-09-02 07:31:40.100,-0.004,-0.024,-0.968,0.263,0.24,-0.31,0.03,-0.116,0.008,-0.104
2026-09-02 07:31:40.200,-0.004,-0.024,-0.968,0.264,0.51,0.1,-0.23,0.009,-0.046,-0.006
2026-09-02 07:31:40.300,-0.004,-0.024,-0.968,0.264,0.14,0.31,-0.15,0.051,0.039,0.097
2026-09-02 07:31:40.400,-0.004,-0.024,-0.968,0.264,0.01,-0.09,-0.2,0.029,-0.001,-0.009
2026-09-02 07:31:40.500,-0.004,-0.024,-0.968,0.264,0.59,0.3,-0.12,0.06,0.026,-0.138
2026-09-02 07:31:40.600,-0.004,-0.024,-0.968,0.264,0.29,-0.12,-0.15,-0.022,0.046,0.091
2026-09-02 07:31:40.700,-0.004,-0.024,-0.968,0.264,0.07,-0.21,-0.13,-0.088,0.057,-0.092
2026-09-02 07:31:40.800,-0.004,-0.024,-0.968,0.264,0.2,0.16,-0.21,0.003,-0.07,-0.222
2026-09-02 07:31:40.900,-0.004,-0.024,-0.968,0.264,0.1,-0.15,-0.12,0.004,-0.028,-0.064
2026-09-02 07:31:41.000,-0.004,-0.024,-0.968,0.264,0.2,0.02,0.2,0.081,-0.042,-0.051
2026-09-02 07:31:41.100,-0.005,-0.025,-0.968,0.264,0.18,0.09,-0.01,0.023,0.023,-0.149
2026-09-02 07:31:41.200,-0.005,-0.025,-0.968,0.264,0.47,0.14,-0.15,0.019,-0.022,0.049
2026-09-02 07:31:41.300,-0.005,-0.025,-0.968,0.264,0.23,0.04,-0.07,0.019,-0.094,0.105
2026-09-02 07:31:41.400,-0.005,-0.025,-0.968,0.264,0.5,-0.03,-0.1,-0.001,0.07,0.038
2026-09-02 07:31:41.500,-0.005,-0.025,-0.968,0.264,0.22,0.07,0.09,0.044,-0.002,0.102
2026-09-02 07:31:41.600,-0.005,-0.025,-0.968,0.264,-0.17,-0.02,0.03,0.04,0.006,-0.055
2026-09-02 07:31:41.700,-0.005,-0.025,-0.968,0.264,0.07,-0.09,0.09,-0.0,-0.038,0.03
2026-09-02 07:31:41.800,-0.005,-0.025,-0.968,0.264,0.36,0.18,-0.11,0.004,0.041,0.032
2026-09-02 07:31:41.900,-0.005,-0.025,-0.968,0.264,0.27,-0.15,-0.1,0.038,0.039,-0.126
2026-09-02 07:31:42.000,-0.005,-0.025,-0.968,0.264,-0.2,-0.24,0.28,-0.012,-0.065,-0.05
2026-09-02 07:31:42.100,-0.005,-0.025,-0.968,0.264,0.21,-0.23,0.12,0.005,0.023,0.009
2026-09-02 07:31:42.200,-0.005,-0.025,-0.968,0.264,0.22,0.12,0.15,-0.043,-0.008,0.051
2026-09-02 07:31:42.300,-0.005,-0.025,-0.968,0.264,-0.04,0.69,0.02,-0.018,-0.015,-0.035
2026-09-02 07:31:42.400,-0.005,-0.025,-0.968,0.264,0.32,0.1,-0.06,0.076,-0.012,-0.105
2026-09-02 07:31:42.500,-0.005,-0.025,-0.968,0.264,0.21,-0.05,-0.09,-0.027,-0.018,-0.106
2026-09-02 07:31:42.600,-0.005,-0.025,-0.968,0.264,0.32,-0.21,0.06,0.001,-0.004,0.04
2026-09-02 07:31:42.700,-0.006,-0.025,-0.968,0.264,0.16,-0.03,-0.21,-0.027,0.049,-0.066
2026-09-02 07:31:42.800,-0.006,-0.025,-0.968,0.264,0.19,0.16,-0.0,0.027,-0.044,0.123
2026-09-02 07:31:42.900,-0.006,-0.025,-0.968,0.264,0.23,0.09,-0.14,-0.04,-0.046,0.051
2026-09-02 07:31:43.000,-0.006,-0.025,-0.968,0.264,-0.05,0.04,-0.03,0.02,0.058,-0.057
2026-09-02 07:31:43.100,-0.006,-0.025,-0.968,0.264,0.21,-0.33,0.21,0.017,-0.031,-0.058
2026-09-02 07:31:43.200,-0.006,-0.025,-0.968,0.264,0.48,-0.1,0.01,0.047,-0.022,0.042
2026-09-02 07:31:43.300,-0.006,-0.025,-0.968,0.265,0.29,0.14,-0.08,0.024,-0.007,-0.123
2026-09-02 07:31:43.400,-0.006,-0.025,-0.968,0.265,0.19,0.14,-0.04,0.017,0.083,-0.074
2026-09-02 07:31:43.500,-0.006,-0.026,-0.968,0.265,0.27,0.1,-0.24,-0.083,0.046,-0.015
2026-09-02 07:31:43.600,-0.006,-0.026,-0.968,0.265,0.34,-0.29,0.0,0.031,-0.08,0.019
2026-09-02 07:31:43.700,-0.006,-0.026,-0.968,0.265,0.06,-0.33,0.03,0.058,-0.024,0.055
2026-09-02 07:31:43.800,-0.006,-0.026,-0.968,0.265,0.29,0.31,-0.05,-0.069,-0.026,0.151
2026-09-02 07:31:43.900,-0.006,-0.026,-0.968,0.265,0.14,-0.14,-0.1,-0.035,-0.008,-0.089
2026-09-02 07:31:44.000,-0.006,-0.026,-0.969,0.265,0.12,-0.0,-0.01,0.07,0.054,-0.018
2026-09-02 07:31:44.100,-0.006,-0.026,-0.969,0.265,0.03,0.11,0.02,-0.003,-0.06,-0.018
2026-09-02 07:31:44.200,-0.007,-0.026,-0.969,0.265,0.36,-0.22,0.06,-0.073,0.033,-0.008
2026-09-02 07:31:44.300,-0.007,-0.026,-0.969,0.265,0.06,0.35,-0.02,-0.053,-0.002,-0.049
2026-09-02 07:31:44.400,-0.007,-0.026,-0.969,0.265,0.22,-0.04,-0.06,0.008,0.005,-0.062
2026-09-02 07:31:44.500,-0.007,-0.026,-0.969,0.265,0.16,0.12,0.22,-0.042,0.049,-0.154
2026-09-02 07:31:44.600,-0.007,-0.026,-0.969,0.265,0.01,0.04,0.01,-0.014,-0.034,0.093
2026-09-02 07:31:44.700,-0.007,-0.026,-0.969,0.265,0.17,0.04,-0.18,0.034,0.004,-0.008
2026-09-02 07:31:44.800,-0.007,-0.026,-0.969,0.265,0.38,-0.13,-0.15,-0.032,0.092,-0.02
2026-09-02 07:31:44.900,-0.007,-0.026,-0.969,0.265,0.09,0.24,-0.13,-0.027,-0.024,-0.024
2026-09-02 07:31:45.000,-0.007,-0.026,-0.969,0.265,0.13,0.03,0.14,0.067,0.004,0.05
2026-09-02 07:31:45.100,-0.007,-0.026,-0.969,0.265,0.29,0.01,0.14,-0.023,0.035,-0.04
2026-09-02 07:31:45.200,-0.007,-0.026,-0.969,0.265,0.43,0.45,-0.16,-0.009,0.042,0.0
2026-09-02 07:31:45.300,-0.007,-0.026,-0.969,0.265,0.08,0.51,-0.13,-0.039,-0.018,0.039
2026-09-02 07:31:45.400,-0.007,-0.026,-0.969,0.265,0.16,-0.07,0.11,-0.08,0.01,-0.043
2026-09-02 07:31:45.500,-0.007,-0.026,-0.969,0.265,0.4,-0.26,0.07,0.044,0.072,0.049
2026-09-02 07:31:45.600,-0.007,-0.026,-0.969,0.265,0.14,-0.45,-0.04,0.014,-0.036,-0.084
2026-09-02 07:31:45.700,-0.007,-0.026,-0.969,0.265,0.19,-0.1,0.11,-0.007,-0.006,0.059
2026-09-02 07:31:45.800,-0.008,-0.026,-0.969,0.265,0.29,0.03,-0.17,0.03,-0.007,0.072
2026-09-02 07:31:45.900,-0.008,-0.026,-0.969,0.265,0.03,-0.41,-0.05,0.131,-0.064,0.181
2026-09-02 07:31:46.000,-0.008,-0.026,-0.969,0.265,0.34,0.15,0.01,-0.01,0.023,0.042
2026-09-02 07:31:46.100,-0.008,-0.026,-0.969,0.265,0.09,-0.07,0.19,0.009,0.023,-0.14
2026-09-02 07:31:46.200,-0.008,-0.027,-0.969,0.266,0.29,0.27,-0.01,-0.119,-0.045,-0.053
2026-09-02 07:31:46.300,-0.008,-0.027,-0.969,0.266,0.01,-0.15,-0.04,-0.013,0.091,0.013
2026-09-02 07:31:46.400,-0.008,-0.027,-0.969,0.266,0.23,0.16,0.25,0.03,-0.042,0.059
2026-09-02 07:31:46.500,-0.008,-0.027,-0.969,0.266,0.22,-0.06,0.23,-0.027,-0.022,-0.085
2026-09-02 07:31:46.600,-0.008,-0.027,-0.969,0.266,0.43,0.1,-0.07,-0.132,-0.081,-0.064
2026-09-02 07:31:46.700,-0.008,-0.027,-0.969,0.266,0.05,0.17,0.14,0.033,0.002,-0.106
2026-09-02 07:31:46.800,-0.008,-0.027,-0.969,0.266,0.31,-0.03,0.02,0.017,0.005,-0.035
2026-09-02 07:31:46.900,-0.008,-0.027,-0.969,0.266,0.28,-0.06,0.04,-0.081,-0.105,0.146
2026-09-02 07:31:47.000,-0.008,-0.027,-0.969,0.266,0.12,-0.1,-0.09,-0.051,-0.098,-0.027
2026-09-02 07:31:47.100,-0.008,-0.027,-0.969,0.266,0.54,0.28,0.19,-0.013,-0.07,0.044
2026-09-02 07:31:47.200,-0.008,-0.027,-0.969,0.266,0.35,-0.16,0.03,0.054,0.087,0.036
2026-09-02 07:31:47.300,-0.008,-0.027,-0.969,0.266,0.41,0.07,0.12,-0.003,0.037,0.04
2026-09-02 07:31:47.400,-0.008,-0.027,-0.969,0.266,0.36,0.02,-0.17,0.049,-0.007,-0.156
2026-09-02 07:31:47.500,-0.009,-0.027,-0.969,0.266,0.39,-0.37,0.0,0.05,0.027,-0.031
2026-09-02 07:31:47.600,-0.009,-0.027,-0.969,0.266,0.2,0.04,-0.22,0.073,0.051,-0.017
2026-09-02 07:31:47.700,-0.009,-0.027,-0.969,0.266,0.25,-0.29,0.04,-0.021,-0.005,-0.103
2026-09-02 07:31:47.800,-0.009,-0.027,-0.969,0.266,0.2,-0.17,0.14,-0.001,-0.026,0.02
2026-09-02 07:31:47.900,-0.009,-0.027,-0.969,0.266,0.05,0.04,-0.02,0.045,-0.01,0.004
2026-09-02 07:31:48.000,-0.009,-0.027,-0.969,0.266,0.58,0.15,-0.06,-0.003,0.028,0.022
2026-09-02 07:31:48.100,-0.009,-0.027,-0.969,0.266,0.03,-0.15,-0.12,-0.066,-0.015,-0.054
2026-09-02 07:31:48.200,-0.009,-0.027,-0.969,0.266,0.47,-0.08,0.14,-0.043,-0.006,0.017
2026-09-02 07:31:48.300,-0.009,-0.027,-0.969,0.266,0.26,-0.11,0.15,-0.0,0.048,-0.001
2026-09-02 07:31:48.400,-0.009,-0.027,-0.969,0.266,0.21,0.24,-0.1,0.009,0.076,-0.004
2026-09-02 07:31:48.500,-0.009,-0.027,-0.969,0.266,0.49,0.33,0.03,-0.007,-0.02,-0.017
2026-09-02 07:31:48.600,-0.009,-0.027,-0.969,0.266,0.25,0.02,-0.13,0.049,-0.005,0.023
2026-09-02 07:31:48.700,-0.009,-0.027,-0.969,0.266,0.35,0.24,0.06,0.019,-0.054,-0.071
2026-09-02 07:31:48.800,-0.009,-0.027,-0.969,0.266,0.22,0.29,0.23,0.029,-0.025,0.112
2026-09-02 07:31:48.900,-0.009,-0.027,-0.969,0.267,0.48,-0.12,-0.12,0.043,-0.053,0.048
2026-09-02 07:31:49.000,-0.009,-0.027,-0.969,0.267,0.43,0.22,0.08,-0.025,0.062,-0.15
2026-09-02 07:31:49.100,-0.01,-0.027,-0.969,0.267,0.32,0.02,-0.33,0.055,-0.082,0.071
2026-09-02 07:31:49.200,-0.01,-0.027,-0.969,0.267,0.33,0.06,-0.08,0.038,0.038,0.028
2026-09-02 07:31:49.300,-0.01,-0.028,-0.969,0.267,-0.16,0.01,0.12,-0.017,-0.03,-0.051
2026-09-02 07:31:49.400,-0.01,-0.028,-0.969,0.267,-0.0,-0.05,0.01,0.053,0.064,0.118
2026-09-02 07:31:49.500,-0.01,-0.028,-0.969,0.267,0.34,0.26,-0.05,-0.079,-0.092,-0.113
2026-09-02 07:31:49.600,-0.01,-0.028,-0.969,0.267,0.32,-0.13,0.0,0.091,-0.047,0.036
2026-09-02 07:31:49.700,-0.01,-0.028,-0.969,0.267,0.15,0.18,-0.29,0.008,0.028,-0.067
2026-09-02 07:31:49.800,-0.01,-0.028,-0.969,0.267,0.25,-0.09,-0.05,0.051,0.019,-0.051
2026-09-02 07:31:49.900,-0.01,-0.028,-0.97,0.267,0.02,-0.06,0.09,-0.013,0.081,0.044
2026-09-02 07:31:50.000,-0.01,-0.028,-0.97,0.267,0.16,-0.0,-0.13,-0.003,0.018,0.014
2026-09-02 07:31:50.100,-0.01,-0.028,-0.97,0.267,0.4,0.07,-0.02,-0.03,0.068,0.012
2026-09-02 07:31:50.200,-0.01,-0.028,-0.97,0.267,-0.1,-0.25,0.02,-0.024,-0.037,0.036
2026-09-02 07:31:50.300,-0.01,-0.028,-0.97,0.267,0.4,0.18,-0.15,-0.043,0.06,-0.006
2026-09-02 07:31:50.400,-0.01,-0.028,-0.97,0.267,0.21,0.28,0.15,-0.062,-0.031,0.05
2026-09-02 07:31:50.500,-0.01,-0.028,-0.97,0.267,0.41,0.14,-0.17,0.039,-0.12,-0.065
2026-09-02 07:31:50.600,-0.01,-0.028,-0.97,0.267,0.21,-0.34,-0.01,0.05,-0.026,0.056
2026-09-02 07:31:50.700,-0.01,-0.028,-0.97,0.267,0.23,0.05,0.19,0.035,-0.004,-0.01
2026-09-02 07:31:50.800,-0.01,-0.028,-0.97,0.267,0.49,-0.29,0.1,-0.047,0.014,0.057
2026-09-02 07:31:50.900,-0.011,-0.028,-0.97,0.267,0.12,-0.27,-0.18,-0.034,0.038,0.08
2026-09-02 07:31:51.000,-0.011,-0.028,-0.97,0.267,0.37,-0.03,0.35,-0.019,-0.062,0.004
2026-09-02 07:31:51.100,-0.011,-0.028,-0.97,0.267,0.33,0.06,-0.16,-0.052,-0.041,0.118
2026-09-02 07:31:51.200,-0.011,-0.028,-0.97,0.267,0.02,-0.15,-0.02,0.052,-0.003,-0.185
2026-09-02 07:31:51.300,-0.011,-0.028,-0.97,0.267,0.22,-0.17,-0.0,0.028,0.048,-0.023
2026-09-02 07:31:51.400,-0.011,-0.028,-0.97,0.267,0.35,0.18,0.12,0.045,0.075,0.092
2026-09-02 07:31:51.500,-0.011,-0.028,-0.97,0.268,0.71,-0.35,0.15,-0.041,0.062,0.077
2026-09-02 07:31:51.600,-0.011,-0.028,-0.97,0.268,-0.02,0.0,-0.07,0.027,0.039,-0.017
2026-09-02 07:31:51.700,-0.011,-0.028,-0.97,0.268,0.22,-0.09,0.22,0.014,-0.075,0.015
2026-09-02 07:31:51.800,-0.011,-0.028,-0.97,0.268,0.36,0.1,-0.2,0.02,-0.059,-0.085
2026-09-02 07:31:51.900,-0.011,-0.028,-0.97,0.268,0.18,-0.29,0.09,-0.017,-0.034,0.132
2026-09-02 07:31:52.000,-0.011,-0.028,-0.97,0.268,0.14,-0.36,-0.21,-0.113,0.019,0.089
2026-09-02 07:31:52.100,-0.011,-0.028,-0.97,0.268,0.24,0.03,-0.2,0.107,0.022,0.054
2026-09-02 07:31:52.200,-0.011,-0.028,-0.97,0.268,-0.07,-0.27,-0.18,0.002,0.005,0.001
2026-09-02 07:31:52.300,-0.011,-0.028,-0.97,0.268,0.35,0.02,-0.07,-0.069,-0.049,0.032
2026-09-02 07:31:52.400,-0.011,-0.028,-0.97,0.268,0.24,-0.12,-0.04,0.048,-0.011,0.045
2026-09-02 07:31:52.500,-0.011,-0.028,-0.97,0.268,0.2,0.42,-0.15,0.049,0.029,0.064
2026-09-02 07:31:52.600,-0.011,-0.028,-0.97,0.268,0.24,0.52,0.16,-0.012,-0.057,0.014
2026-09-02 07:31:52.700,-0.012,-0.028,-0.97,0.268,0.28,-0.07,-0.02,0.039,0.072,0.0
2026-09-02 07:31:52.800,-0.012,-0.028,-0.97,0.268,0.3,-0.19,-0.28,-0.021,-0.0,0.131
2026-09-02 07:31:52.900,-0.012,-0.028,-0.97,0.268,0.46,0.04,-0.15,0.009,-0.017,0.127
2026-09-02 07:31:53.000,-0.012,-0.029,-0.97,0.268,0.39,0.07,0.14,-0.038,-0.065,0.026
2026-09-02 07:31:53.100,-0.012,-0.029,-0.97,0.268,0.52,-0.13,0.02,-0.021,0.032,0.166
2026-09-02 07:31:53.200,-0.012,-0.029,-0.97,0.268,0.28,0.16,0.01,0.079,0.031,-0.081
2026-09-02 07:31:53.300,-0.012,-0.029,-0.97,0.268,-0.03,0.23,-0.15,-0.018,0.05,-0.062
2026-09-02 07:31:53.400,-0.012,-0.029,-0.97,0.268,0.03,0.06,-0.05,0.056,0.049,0.062
2026-09-02 07:31:53.500,-0.012,-0.029,-0.97,0.268,0.28,0.19,-0.15,0.017,-0.033,0.02
2026-09-02 07:31:53.600,-0.012,-0.029,-0.97,0.268,0.36,-0.3,-0.11,-0.076,0.017,0.062
2026-09-02 07:31:53.700,-0.012,-0.029,-0.97,0.268,0.26,0.01,-0.16,0.055,0.04,-0.084
2026-09-02 07:31:53.800,-0.012,-0.029,-0.97,0.268,-0.0,0.16,0.04,0.002,-0.024,0.017
2026-09-02 07:31:53.900,-0.012,-0.029,-0.97,0.268,0.16,0.16,0.06,-0.054,0.069,-0.119
2026-09-02 07:31:54.000,-0.012,-0.029,-0.97,0.268,-0.0,-0.07,-0.21,0.043,-0.031,0.053
2026-09-02 07:31:54.100,-0.012,-0.029,-0.97,0.269,0.13,0.03,0.07,-0.05,0.08,0.197
2026-09-02 07:31:54.200,-0.012,-0.029,-0.97,0.269,0.61,0.14,0.3,0.017,0.033,0.047
2026-09-02 07:31:54.300,-0.012,-0.029,-0.97,0.269,0.41,-0.09,0.04,-0.078,-0.033,-0.059
2026-09-02 07:31:54.400,-0.012,-0.029,-0.97,0.269,0.17,-0.01,0.21,0.026,0.033,0.124
2026-09-02 07:31:54.500,-0.012,-0.029,-0.97,0.269,0.21,-0.09,0.02,-0.001,-0.084,0.07
2026-09-02 07:31:54.600,-0.013,-0.029,-0.97,0.269,0.49,-0.08,-0.02,-0.011,0.012,0.041
2026-09-02 07:31:54.700,-0.013,-0.029,-0.97,0.269,0.29,0.13,-0.09,-0.098,0.047,0.007
2026-09-02 07:31:54.800,-0.013,-0.029,-0.97,0.269,0.14,-0.17,0.01,0.04,0.038,-0.069
2026-09-02 07:31:54.900,-0.013,-0.029,-0.97,0.269,0.35,-0.08,-0.37,0.007,-0.026,-0.051
2026-09-02 07:31:55.000,-0.013,-0.029,-0.97,0.269,0.13,-0.02,-0.03,0.005,-0.017,-0.011
2026-09-02 07:31:55.100,-0.013,-0.029,-0.97,0.269,0.25,-0.02,-0.0,0.014,-0.065,0.088
2026-09-02 07:31:55.200,-0.013,-0.029,-0.97,0.269,0.48,0.3,0.13,-0.036,0.082,0.051
2026-09-02 07:31:55.300,-0.013,-0.029,-0.97,0.269,0.16,-0.12,0.03,0.052,0.063,0.084
2026-09-02 07:31:55.400,-0.013,-0.029,-0.97,0.269,0.14,-0.31,-0.0,-0.057,0.028,0.001
2026-09-02 07:31:55.500,-0.013,-0.029,-0.97,0.269,0.35,-0.12,-0.02,-0.04,0.039,-0.024
2026-09-02 07:31:55.600,-0.013,-0.029,-0.97,0.269,0.18,0.13,-0.02,-0.089,0.087,-0.006
2026-09-02 07:31:55.700,-0.013,-0.029,-0.97,0.269,0.24,0.24,-0.19,-0.084,0.086,0.052
2026-09-02 07:31:55.800,-0.013,-0.029,-0.97,0.269,0.4,0.13,-0.08,-0.035,-0.005,0.099
2026-09-02 07:31:55.900,-0.013,-0.029,-0.97,0.269,-0.05,-0.14,0.08,-0.023,-0.005,0.052
2026-09-02 07:31:56.000,-0.013,-0.029,-0.97,0.269,0.27,0.03,0.06,-0.006,-0.049,0.085
2026-09-02 07:31:56.100,-0.013,-0.029,-0.97,0.269,-0.08,0.14,0.16,0.12,-0.028,0.006
2026-09-02 07:31:56.200,-0.013,-0.029,-0.97,0.269,0.22,-0.17,0.02,0.063,-0.021,0.215
2026-09-02 07:31:56.300,-0.013,-0.029,-0.97,0.269,0.36,0.32,0.16,0.045,0.05,0.08
2026-09-02 07:31:56.400,-0.013,-0.029,-0.97,0.269,0.46,-0.02,-0.07,-0.061,-0.043,0.096
2026-09-02 07:31:56.500,-0.014,-0.029,-0.97,0.269,0.5,-0.12,0.02,-0.042,0.092,-0.049
2026-09-02 07:31:56.600,-0.014,-0.029,-0.97,0.27,0.23,-0.11,0.23,-0.05,-0.045,-0.142
2026-09-02 07:31:56.700,-0.014,-0.029,-0.97,0.27,0.03,0.12,-0.13,-0.035,0.156,0.053
2026-09-02 07:31:56.800,-0.014,-0.029,-0.97,0.27,0.32,-0.04,-0.12,-0.014,0.01,0.048
2026-09-02 07:31:56.900,-0.014,-0.029,-0.97,0.27,0.46,0.01,0.03,0.037,-0.008,-0.157
2026-09-02 07:31:57.000,-0.014,-0.029,-0.97,0.27,0.25,0.04,0.01,0.056,-0.058,0.08
2026-09-02 07:31:57.100,-0.014,-0.029,-0.97,0.27,0.15,-0.16,-0.1,0.011,-0.014,-0.064
2026-09-02 07:31:57.200,-0.014,-0.029,-0.97,0.27,0.13,-0.17,0.13,-0.049,0.031,-0.083
2026-09-02 07:31:57.300,-0.014,-0.029,-0.97,0.27,0.3,0.06,0.01,0.014,-0.016,-0.082
2026-09-02 07:31:57.400,-0.014,-0.029,-0.97,0.27,0.24,-0.07,-0.11,-0.019,0.044,-0.069
2026-09-02 07:31:57.500,-0.014,-0.029,-0.97,0.27,0.02,-0.03,-0.12,0.089,-0.051,-0.068
2026-09-02 07:31:57.600,-0.014,-0.029,-0.97,0.27,0.06,-0.01,0.05,0.029,0.054,-0.008
2026-09-02 07:31:57.700,-0.014,-0.029,-0.97,0.27,0.31,-0.45,-0.2,0.008,0.03,-0.081
2026-09-02 07:31:57.800,-0.014,-0.029,-0.97,0.27,0.02,-0.3,0.12,0.026,-0.043,-0.098
2026-09-02 07:31:57.900,-0.014,-0.029,-0.97,0.27,0.41,-0.0,0.01,-0.097,0.034,0.138
2026-09-02 07:31:58.000,-0.014,-0.029,-0.97,0.27,0.18,-0.15,-0.27,-0.006,0.028,-0.088
2026-09-02 07:31:58.100,-0.014,-0.029,-0.97,0.27,0.36,0.06,0.08,0.021,-0.05,-0.063
2026-09-02 07:31:58.200,-0.014,-0.029,-0.97,0.27,0.27,0.08,0.1,-0.06,0.033,-0.08
2026-09-02 07:31:58.300,-0.014,-0.029,-0.97,0.27,0.08,-0.11,-0.03,0.045,-0.063,-0.006
2026-09-02 07:31:58.400,-0.014,-0.03,-0.97,0.27,0.23,0.15,0.04,0.01,-0.062,-0.066
2026-09-02 07:31:58.500,-0.014,-0.03,-0.97,0.27,0.01,0.09,-0.12,0.018,0.016,0.034
2026-09-02 07:31:58.600,-0.015,-0.03,-0.97,0.27,0.12,0.21,-0.15,-0.018,-0.04,-0.072
2026-09-02 07:31:58.700,-0.015,-0.03,-0.97,0.27,0.23,-0.09,0.17,-0.018,-0.013,0.041
2026-09-02 07:31:58.800,-0.015,-0.03,-0.97,0.27,0.06,0.12,0.3,-0.026,0.069,-0.057
2026-09-02 07:31:58.900,-0.015,-0.03,-0.97,0.27,-0.02,0.28,-0.23,-0.027,0.009,0.104
2026-09-02 07:31:59.000,-0.015,-0.03,-0.97,0.27,0.15,0.11,0.25,0.043,0.078,0.079
2026-09-02 07:31:59.100,-0.015,-0.03,-0.97,0.271,0.1,-0.02,0.22,0.127,-0.107,0.164
2026-09-02 07:31:59.200,-0.015,-0.03,-0.97,0.271,0.17,-0.28,-0.02,-0.06,-0.043,-0.113
2026-09-02 07:31:59.300,-0.015,-0.03,-0.97,0.271,0.55,0.31,0.28,0.041,0.033,-0.066
2026-09-02 07:31:59.400,-0.015,-0.03,-0.97,0.271,0.09,0.23,-0.17,0.093,0.015,0.002
2026-09-02 07:31:59.500,-0.015,-0.03,-0.97,0.271,0.21,0.12,-0.02,-0.041,-0.02,-0.036
2026-09-02 07:31:59.600,-0.015,-0.03,-0.97,0.271,0.24,0.07,-0.09,0.057,0.047,0.015
2026-09-02 07:31:59.700,-0.015,-0.03,-0.97,0.271,0.48,-0.13,0.01,0.047,0.06,-0.102
2026-09-02 07:31:59.800,-0.015,-0.03,-0.97,0.271,0.53,0.0,-0.06,-0.015,-0.052,-0.08
2026-09-02 07:31:59.900,-0.015,-0.03,-0.97,0.271,0.29,-0.05,0.04,-0.092,-0.009,-0.036
2026-09-02 07:32:00.000,-0.015,-0.03,-0.97,0.271,0.09,0.12,0.03,-0.004,-0.057,0.012
2026-09-02 07:32:00.100,-0.015,-0.03,-0.97,0.271,0.11,-0.18,0.11,0.035,0.06,-0.061
2026-09-02 07:32:00.200,-0.015,-0.03,-0.97,0.271,0.49,0.06,-0.15,-0.081,0.016,0.095
2026-09-02 07:32:00.300,-0.015,-0.03,-0.97,0.271,0.38,-0.12,-0.18,0.001,-0.063,-0.009
2026-09-02 07:32:00.400,-0.015,-0.03,-0.97,0.271,0.01,-0.25,-0.1,0.056,-0.094,0.083
2026-09-02 07:32:00.500,-0.015,-0.03,-0.97,0.271,0.15,-0.17,0.17,0.151,-0.066,-0.038
2026-09-02 07:32:00.600,-0.015,-0.03,-0.97,0.271,0.23,-0.4,0.15,0.006,-0.074,-0.007
2026-09-02 07:32:00.700,-0.015,-0.03,-0.97,0.271,-0.01,0.01,0.06,0.029,-0.087,-0.072
2026-09-02 07:32:00.800,-0.015,-0.03,-0.97,0.271,0.51,-0.27,0.17,0.089,0.091,-0.064
2026-09-02 07:32:00.900,-0.016,-0.03,-0.97,0.271,0.29,0.33,0.05,-0.053,-0.027,-0.043
2026-09-02 07:32:01.000,-0.016,-0.03,-0.97,0.271,0.23,-0.08,0.11,-0.06,-0.015,-0.03
2026-09-02 07:32:01.100,-0.016,-0.03,-0.97,0.271,0.09,0.28,0.21,0.011,0.057,-0.038
2026-09-02 07:32:01.200,-0.016,-0.03,-0.97,0.271,0.28,-0.59,0.08,0.075,0.053,0.056
2026-09-02 07:32:01.300,-0.016,-0.03,-0.97,0.271,-0.16,0.08,0.08,0.044,-0.009,-0.101
2026-09-02 07:32:01.400,-0.016,-0.03,-0.97,0.271,0.43,0.4,0.07,0.015,-0.017,-0.074
2026-09-02 07:32:01.500,-0.016,-0.03,-0.97,0.271,0.35,0.13,-0.01,0.078,0.018,0.014
2026-09-02 07:32:01.600,-0.016,-0.03,-0.97,0.272,0.4,0.15,-0.12,0.137,0.021,-0.053
2026-09-02 07:32:01.700,-0.016,-0.03,-0.97,0.272,0.08,-0.39,-0.14,0.029,-0.047,0.054
2026-09-02 07:32:01.800,-0.016,-0.03,-0.97,0.272,-0.05,0.11,0.15,0.002,-0.027,0.034
2026-09-02 07:32:01.900,-0.016,-0.03,-0.97,0.272,0.34,-0.21,0.1,-0.069,0.065,-0.099
2026-09-02 07:32:02.000,-0.016,-0.03,-0.97,0.272,0.13,0.03,0.01,0.031,-0.041,0.121
2026-09-02 07:32:02.100,-0.016,-0.03,-0.97,0.272,0.16,-0.02,-0.04,-0.03,-0.022,-0.04
2026-09-02 07:32:02.200,-0.016,-0.03,-0.97,0.272,0.25,-0.0,0.07,0.0,-0.021,-0.016
2026-09-02 07:32:02.300,-0.016,-0.03,-0.97,0.272,0.38,-0.05,0.23,0.035,0.008,0.024
2026-09-02 07:32:02.400,-0.016,-0.03,-0.97,0.272,0.17,0.02,-0.08,0.061,0.076,-0.116
2026-09-02 07:32:02.500,-0.016,-0.03,-0.97,0.272,0.34,-0.08,0.11,0.157,-0.012,0.054
2026-09-02 07:32:02.600,-0.016,-0.03,-0.97,0.272,0.39,0.28,-0.03,0.01,-0.003,0.086
2026-09-02 07:32:02.700,-0.016,-0.03,-0.97,0.272,0.15,-0.23,0.13,-0.092,-0.017,0.076
2026-09-02 07:32:02.800,-0.016,-0.03,-0.97,0.272,0.15,-0.09,-0.04,0.014,0.028,-0.077
2026-09-02 07:32:02.900,-0.016,-0.03,-0.97,0.272,0.26,0.13,-0.01,-0.022,0.087,0.113
2026-09-02 07:32:03.000,-0.016,-0.03,-0.97,0.272,0.2,0.13,0.1,-0.038,0.029,0.029
2026-09-02 07:32:03.100,-0.016,-0.03,-0.97,0.272,0.04,-0.18,0.0,0.014,0.004,-0.003
2026-09-02 07:32:03.200,-0.016,-0.03,-0.97,0.272,0.18,-0.12,0.14,0.026,-0.009,-0.1
2026-09-02 07:32:03.300,-0.016,-0.03,-0.97,0.272,0.4,0.16,-0.06,-0.069,-0.003,0.031
2026-09-02 07:32:03.400,-0.017,-0.03,-0.97,0.272,0.43,0.03,-0.08,-0.047,0.034,0.004
2026-09-02 07:32:03.500,-0.017,-0.03,-0.97,0.272,0.03,0.23,0.09,0.046,0.04,0.08
2026-09-02 07:32:03.600,-0.017,-0.03,-0.97,0.272,0.11,0.26,-0.05,0.01,0.0,-0.053
2026-09-02 07:32:03.700,-0.017,-0.03,-0.97,0.272,0.12,0.33,0.19,-0.054,-0.048,0.062
2026-09-02 07:32:03.800,-0.017,-0.03,-0.97,0.272,-0.11,0.15,0.16,-0.009,-0.017,-0.043
2026-09-02 07:32:03.900,-0.017,-0.03,-0.97,0.272,0.29,-0.03,0.11,-0.024,-0.016,-0.123
2026-09-02 07:32:04.000,-0.017,-0.03,-0.97,0.272,0.41,0.3,-0.1,-0.02,0.059,-0.168
2026-09-02 07:32:04.100,-0.017,-0.03,-0.97,0.272,0.23,0.14,0.02,0.028,0.048,-0.172
2026-09-02 07:32:04.200,-0.017,-0.03,-0.97,0.273,0.38,-0.15,0.19,0.019,-0.007,-0.08
2026-09-02 07:32:04.300,-0.017,-0.03,-0.97,0.273,0.36,0.17,0.33,-0.006,-0.008,0.069
2026-09-02 07:32:04.400,-0.017,-0.03,-0.97,0.273,-0.02,0.31,-0.03,0.044,0.013,0.022
2026-09-02 07:32:04.500,-0.017,-0.03,-0.97,0.273,0.13,-0.1,-0.01,-0.008,-0.042,-0.04
2026-09-02 07:32:04.600,-0.017,-0.03,-0.97,0.273,0.03,0.03,0.04,0.067,-0.001,0.048
2026-09-02 07:32:04.700,-0.017,-0.03,-0.97,0.273,0.23,-0.01,-0.02,-0.087,0.01,-0.081
2026-09-02 07:32:04.800,-0.017,-0.03,-0.97,0.273,0.44,0.0,-0.15,-0.042,-0.045,0.008
2026-09-02 07:32:04.900,-0.017,-0.03,-0.97,0.273,0.39,0.13,0.38,0.097,0.043,0.114
2026-09-02 07:32:05.000,-0.017,-0.03,-0.97,0.273,0.11,0.19,0.21,-0.051,-0.042,-0.013
2026-09-02 07:32:05.100,-0.017,-0.03,-0.97,0.273,0.33,-0.31,0.06,-0.008,-0.009,0.052
2026-09-02 07:32:05.200,-0.017,-0.03,-0.97,0.273,0.25,0.14,0.09,0.016,0.052,-0.075
2026-09-02 07:32:05.300,-0.017,-0.03,-0.97,0.273,0.08,0.14,0.1,-0.065,-0.052,0.118
2026-09-02 07:32:05.400,-0.017,-0.03,-0.97,0.273,0.23,-0.17,-0.02,0.001,0.029,0.032
2026-09-02 07:32:05.500,-0.017,-0.03,-0.97,0.273,0.1,-0.25,0.27,-0.023,0.02,-0.078
2026-09-02 07:32:05.600,-0.017,-0.03,-0.97,0.273,0.19,-0.25,0.08,-0.034,0.039,0.07
2026-09-02 07:32:05.700,-0.017,-0.03,-0.97,0.273,0.36,-0.24,-0.14,-0.088,0.006,-0.117
2026-09-02 07:32:05.800,-0.017,-0.03,-0.969,0.273,0.28,0.12,0.15,0.072,0.067,-0.01
2026-09-02 07:32:05.900,-0.017,-0.03,-0.969,0.273,0.47,0.09,0.01,-0.076,-0.015,0.061
2026-09-02 07:32:06.000,-0.017,-0.03,-0.969,0.273,0.17,-0.06,0.17,-0.084,0.068,0.063
2026-09-02 07:32:06.100,-0.017,-0.03,-0.969,0.273,0.32,-0.43,0.14,-0.047,0.01,0.041
2026-09-02 07:32:06.200,-0.017,-0.03,-0.969,0.273,0.15,0.23,0.17,0.026,-0.023,0.096
2026-09-02 07:32:06.300,-0.018,-0.03,-0.969,0.273,0.18,0.5,0.28,0.032,0.089,-0.005
2026-09-02 07:32:06.400,-0.018,-0.03,-0.969,0.273,0.22,0.11,-0.18,-0.01,-0.009,0.07
2026-09-02 07:32:06.500,-0.018,-0.03,-0.969,0.273,0.36,-0.07,0.05,-0.036,-0.036,0.083
2026-09-02 07:32:06.600,-0.018,-0.03,-0.969,0.273,0.26,0.53,-0.15,-0.007,0.065,0.031
2026-09-02 07:32:06.700,-0.018,-0.03,-0.969,0.273,0.03,-0.01,-0.05,-0.05,0.048,-0.044
2026-09-02 07:32:06.800,-0.018,-0.03,-0.969,0.274,0.23,0.35,-0.16,0.034,-0.019,0.071
2026-09-02 07:32:06.900,-0.018,-0.03,-0.969,0.274,0.12,-0.22,-0.02,0.063,0.125,-0.185
2026-09-02 07:32:07.000,-0.018,-0.03,-0.969,0.274,0.35,-0.15,-0.16,-0.022,-0.032,0.144
2026-09-02 07:32:07.100,-0.018,-0.03,-0.969,0.274,0.09,0.24,-0.06,-0.009,-0.042,0.021
2026-09-02 07:32:07.200,-0.018,-0.03,-0.969,0.274,0.18,0.03,0.11,0.056,-0.011,0.01
2026-09-02 07:32:07.300,-0.018,-0.03,-0.969,0.274,0.2,-0.24,0.06,-0.074,0.022,-0.125
2026-09-02 07:32:07.400,-0.018,-0.03,-0.969,0.274,0.29,-0.19,-0.05,0.091,-0.072,-0.102
2026-09-02 07:32:07.500,-0.018,-0.03,-0.969,0.274,0.13,0.17,-0.0,-0.018,-0.043,-0.066
2026-09-02 07:32:07.600,-0.018,-0.03,-0.969,0.274,0.21,0.05,-0.17,-0.117,0.005,0.018
2026-09-02 07:32:07.700,-0.018,-0.03,-0.969,0.274,0.32,-0.04,-0.09,0.013,0.046,-0.074
2026-09-02 07:32:07.800,-0.018,-0.03,-0.969,0.274,0.51,-0.2,0.1,0.07,-0.027,-0.015
2026-09-02 07:32:07.900,-0.018,-0.03,-0.969,0.274,0.25,-0.06,0.13,0.008,0.068,0.102
2026-09-02 07:32:08.000,-0.018,-0.03,-0.969,0.274,0.35,0.03,-0.12,-0.067,-0.004,-0.026
2026-09-02 07:32:08.100,-0.018,-0.03,-0.969,0.274,0.07,0.03,-0.0,0.01,-0.064,-0.016
2026-09-02 07:32:08.200,-0.018,-0.03,-0.969,0.274,0.22,0.04,0.16,-0.023,-0.001,-0.069
2026-09-02 07:32:08.300,-0.018,-0.03,-0.969,0.274,0.09,0.02,0.07,-0.011,-0.003,0.161
2026-09-02 07:32:08.400,-0.018,-0.03,-0.969,0.274,0.05,-0.03,0.12,0.027,-0.082,-0.033
2026-09-02 07:32:08.500,-0.018,-0.03,-0.969,0.274,0.36,-0.03,-0.22,-0.004,0.001,0.196
2026-09-02 07:32:08.600,-0.018,-0.03,-0.969,0.274,0.24,0.36,-0.08,-0.071,0.05,-0.06
2026-09-02 07:32:08.700,-0.018,-0.03,-0.969,0.274,0.07,0.17,0.09,0.008,-0.063,0.026
2026-09-02 07:32:08.800,-0.018,-0.03,-0.969,0.274,0.31,0.41,-0.01,-0.072,-0.007,-0.039
2026-09-02 07:32:08.900,-0.018,-0.03,-0.969,0.274,0.1,0.02,-0.11,0.021,0.059,-0.039
2026-09-02 07:32:09.000,-0.018,-0.03,-0.969,0.274,0.01,-0.18,0.03,0.028,-0.133,0.064
2026-09-02 07:32:09.100,-0.018,-0.03,-0.969,0.274,0.31,-0.08,-0.08,-0.038,0.151,-0.083
2026-09-02 07:32:09.200,-0.018,-0.03,-0.969,0.274,0.18,-0.01,0.12,0.083,-0.073,0.048
2026-09-02 07:32:09.300,-0.018,-0.03,-0.969,0.274,0.03,-0.35,-0.0,-0.009,0.066,0.008
2026-09-02 07:32:09.400,-0.018,-0.03,-0.969,0.274,0.31,-0.13,-0.21,0.009,0.062,0.116
2026-09-02 07:32:09.500,-0.018,-0.03,-0.969,0.275,0.26,0.12,0.17,-0.035,0.03,0.082
2026-09-02 07:32:09.600,-0.018,-0.03,-0.969,0.275,0.33,0.36,0.21,0.059,-0.086,-0.032
2026-09-02 07:32:09.700,-0.019,-0.03,-0.969,0.275,0.33,0.22,-0.15,-0.092,-0.048,0.075
2026-09-02 07:32:09.800,-0.019,-0.03,-0.969,0.275,0.69,0.16,0.03,-0.056,0.027,-0.106
2026-09-02 07:32:09.900,-0.019,-0.03,-0.969,0.275,0.01,-0.05,0.1,0.041,0.06,-0.01
2026-09-02 07:32:10.000,-0.019,-0.03,-0.969,0.275,0.48,-0.08,0.21,-0.065,0.015,-0.018
2026-09-02 07:32:10.100,-0.019,-0.03,-0.969,0.275,0.42,0.35,0.07,0.012,-0.051,0.083
2026-09-02 07:32:10.200,-0.019,-0.03,-0.969,0.275,0.26,-0.21,-0.24,-0.035,-0.035,-0.036
2026-09-02 07:32:10.300,-0.019,-0.03,-0.969,0.275,0.16,-0.07,-0.02,0.023,-0.006,-0.158
2026-09-02 07:32:10.400,-0.019,-0.03,-0.969,0.275,0.27,0.43,-0.13,-0.06,0.035,-0.024
2026-09-02 07:32:10.500,-0.019,-0.03,-0.969,0.275,0.22,0.04,-0.0,-0.055,0.022,0.109
2026-09-02 07:32:10.600,-0.019,-0.03,-0.969,0.275,-0.01,0.01,0.07,-0.082,0.014,-0.081
2026-09-02 07:32:10.700,-0.019,-0.03,-0.969,0.275,-0.01,-0.29,0.12,0.041,0.0,-0.047
2026-09-02 07:32:10.800,-0.019,-0.03,-0.969,0.275,0.2,-0.41,0.04,-0.054,-0.029,0.047
2026-09-02 07:32:10.900,-0.019,-0.03,-0.969,0.275,0.4,-0.06,0.16,0.001,0.031,0.227
2026-09-02 07:32:11.000,-0.019,-0.03,-0.969,0.275,0.07,0.22,0.17,0.026,0.011,-0.032
2026-09-02 07:32:11.100,-0.019,-0.03,-0.969,0.275,0.02,-0.12,0.16,0.01,0.04,-0.057
2026-09-02 07:32:11.200,-0.019,-0.03,-0.969,0.275,0.38,0.13,-0.09,-0.031,0.062,0.004
2026-09-02 07:32:11.300,-0.019,-0.03,-0.969,0.275,0.33,0.45,0.12,-0.035,-0.025,0.034
2026-09-02 07:32:11.400,-0.019,-0.03,-0.969,0.275,0.5,0.02,0.34,0.045,0.095,0.086
2026-09-02 07:32:11.500,-0.019,-0.03,-0.969,0.275,0.01,0.09,-0.17,0.078,-0.013,0.052
2026-09-02 07:32:11.600,-0.019,-0.03,-0.969,0.275,0.31,-0.01,0.12,-0.145,-0.046,0.083
2026-09-02 07:32:11.700,-0.019,-0.03,-0.968,0.275,0.28,-0.05,-0.12,-0.027,0.02,-0.076
2026-09-02 07:32:11.800,-0.019,-0.03,-0.968,0.275,0.2,0.24,0.02,-0.018,-0.032,-0.101
2026-09-02 07:32:11.900,-0.019,-0.03,-0.968,0.275,0.32,-0.01,0.15,0.028,-0.064,0.022
2026-09-02 07:32:12.000,-0.019,-0.03,-0.968,0.275,0.36,-0.13,0.24,0.039,0.038,0.079
2026-09-02 07:32:12.100,-0.019,-0.03,-0.968,0.275,0.35,0.03,0.14,0.06,0.05,0.147
2026-09-02 07:32:12.200,-0.019,-0.03,-0.968,0.275,0.26,0.59,0.0,-0.014,-0.011,-0.059
2026-09-02 07:32:12.300,-0.019,-0.03,-0.968,0.275,0.13,-0.19,-0.09,-0.081,0.089,0.045
2026-09-02 07:32:12.400,-0.019,-0.03,-0.968,0.276,-0.13,-0.41,-0.03,0.082,-0.1,0.11
2026-09-02 07:32:12.500,-0.019,-0.03,-0.968,0.276,0.15,0.57,-0.03,0.018,-0.017,0.023
2026-09-02 07:32:12.600,-0.019,-0.03,-0.968,0.276,-0.07,-0.05,-0.15,-0.082,0.005,-0.009
2026-09-02 07:32:12.700,-0.019,-0.03,-0.968,0.276,0.18,-0.21,0.22,-0.038,-0.033,0.072
2026-09-02 07:32:12.800,-0.019,-0.03,-0.968,0.276,0.29,-0.03,-0.1,0.036,0.001,0.035
2026-09-02 07:32:12.900,-0.019,-0.03,-0.968,0.276,0.11,0.28,-0.08,-0.05,0.074,0.041
2026-09-02 07:32:13.000,-0.019,-0.029,-0.968,0.276,0.12,0.11,-0.02,-0.007,0.048,0.018
2026-09-02 07:32:13.100,-0.019,-0.029,-0.968,0.276,-0.09,-0.13,0.27,-0.051,0.047,0.064
2026-09-02 07:32:13.200,-0.019,-0.029,-0.968,0.276,0.13,-0.19,0.02,0.106,-0.027,-0.07
2026-09-02 07:32:13.300,-0.019,-0.029,-0.968,0.276,0.29,-0.31,-0.09,-0.045,0.071,0.018
2026-09-02 07:32:13.400,-0.019,-0.029,-0.968,0.276,0.4,0.25,-0.07,-0.064,0.056,0.038
2026-09-02 07:32:13.500,-0.019,-0.029,-0.968,0.276,0.34,-0.27,-0.03,0.003,-0.031,0.022
2026-09-02 07:32:13.600,-0.019,-0.029,-0.968,0.276,0.23,0.06,-0.04,-0.018,0.076,-0.043
2026-09-02 07:32:13.700,-0.019,-0.029,-0.968,0.276,0.19,-0.07,-0.21,0.001,0.088,-0.025
2026-09-02 07:32:13.800,-0.019,-0.029,-0.968,0.276,0.71,0.13,-0.19,-0.06,0.021,-0.038
2026-09-02 07:32:13.900,-0.019,-0.029,-0.968,0.276,0.54,0.09,0.07,-0.071,0.054,0.031
2026-09-02 07:32:14.000,-0.019,-0.029,-0.968,0.276,0.22,-0.24,-0.16,0.089,0.007,0.028
2026-09-02 07:32:14.100,-0.019,-0.029,-0.968,0.276,0.31,0.34,-0.14,-0.058,-0.076,0.055
2026-09-02 07:32:14.200,-0.019,-0.029,-0.968,0.276,-0.05,0.26,-0.13,-0.004,-0.005,0.009
2026-09-02 07:32:14.300,-0.019,-0.029,-0.968,0.276,0.2,-0.05,0.06,0.01,0.017,0.015
2026-09-02 07:32:14.400,-0.019,-0.029,-0.968,0.276,0.27,-0.25,-0.21,0.015,0.031,0.079
2026-09-02 07:32:14.500,-0.019,-0.029,-0.968,0.276,0.16,-0.11,0.03,-0.071,-0.002,-0.075
2026-09-02 07:32:14.600,-0.019,-0.029,-0.968,0.276,0.36,-0.17,-0.04,-0.054,0.034,-0.049
2026-09-02 07:32:14.700,-0.02,-0.029,-0.968,0.276,0.57,-0.13,0.09,0.055,-0.017,-0.074
2026-09-02 07:32:14.800,-0.02,-0.029,-0.968,0.276,0.43,0.29,-0.22,0.048,-0.067,0.064
2026-09-02 07:32:14.900,-0.02,-0.029,-0.968,0.276,0.14,-0.05,-0.06,-0.035,-0.012,-0.028
2026-09-02 07:32:15.000,-0.02,-0.029,-0.968,0.276,0.45,0.01,-0.15,0.016,-0.018,0.044
2026-09-02 07:32:15.100,-0.02,-0.029,-0.968,0.276,0.2,-0.06,-0.17,-0.057,0.041,0.035
2026-09-02 07:32:15.200,-0.02,-0.029,-0.968,0.276,0.38,-0.01,0.09,0.01,0.015,-0.049
2026-09-02 07:32:15.300,-0.02,-0.029,-0.968,0.276,0.39,-0.27,-0.1,0.02,0.032,0.105
2026-09-02 07:32:15.400,-0.02,-0.029,-0.968,0.276,0.2,-0.3,-0.1,0.019,0.048,0.109
2026-09-02 07:32:15.500,-0.02,-0.029,-0.968,0.277,0.2,0.08,-0.24,-0.048,-0.028,-0.022
2026-09-02 07:32:15.600,-0.02,-0.029,-0.968,0.277,0.29,-0.09,0.21,0.046,0.0,0.107
2026-09-02 07:32:15.700,-0.02,-0.029,-0.968,0.277,0.27,0.42,-0.06,0.054,-0.044,-0.118
2026-09-02 07:32:15.800,-0.02,-0.029,-0.968,0.277,0.3,-0.2,0.02,0.064,0.023,0.111
2026-09-02 07:32:15.900,-0.02,-0.029,-0.967,0.277,0.17,-0.34,0.1,0.033,0.006,-0.046
2026-09-02 07:32:16.000,-0.02,-0.029,-0.967,0.277,0.22,-0.01,0.31,-0.086,0.012,0.059
2026-09-02 07:32:16.100,-0.02,-0.029,-0.967,0.277,0.22,-0.09,0.02,-0.089,0.014,-0.082
2026-09-02 07:32:16.200,-0.02,-0.029,-0.967,0.277,0.15,-0.08,-0.19,-0.047,-0.031,0.124
2026-09-02 07:32:16.300,-0.02,-0.029,-0.967,0.277,0.41,-0.07,-0.2,-0.037,0.048,0.242
2026-09-02 07:32:16.400,-0.02,-0.029,-0.967,0.277,0.07,-0.03,0.21,0.032,0.054,-0.037
2026-09-02 07:32:16.500,-0.02,-0.029,-0.967,0.277,-0.1,-0.01,0.04,0.01,0.032,-0.059
2026-09-02 07:32:16.600,-0.02,-0.029,-0.967,0.277,0.44,0.05,-0.02,-0.031,-0.034,0.13
2026-09-02 07:32:16.700,-0.02,-0.029,-0.967,0.277,0.36,0.09,-0.19,-0.034,-0.064,-0.052
2026-09-02 07:32:16.800,-0.02,-0.029,-0.967,0.277,0.1,0.1,-0.07,-0.024,0.069,0.112
2026-09-02 07:32:16.900,-0.02,-0.029,-0.967,0.277,0.34,0.03,0.03,0.035,0.067,0.014
2026-09-02 07:32:17.000,-0.02,-0.029,-0.967,0.277,0.35,-0.35,-0.1,0.008,0.013,0.041
2026-09-02 07:32:17.100,-0.02,-0.029,-0.967,0.277,0.36,0.13,-0.28,-0.075,0.01,-0.027
2026-09-02 07:32:17.200,-0.02,-0.029,-0.967,0.277,0.07,-0.19,-0.45,0.01,-0.069,-0.018
2026-09-02 07:32:17.300,-0.02,-0.029,-0.967,0.277,0.04,0.01,-0.06,-0.061,0.025,0.045
2026-09-02 07:32:17.400,-0.02,-0.029,-0.967,0.277,0.04,0.04,-0.2,0.024,0.022,0.031
2026-09-02 07:32:17.500,-0.02,-0.029,-0.967,0.277,0.11,-0.44,-0.24,0.044,-0.028,-0.108
2026-09-02 07:32:17.600,-0.02,-0.029,-0.967,0.277,0.29,-0.08,-0.17,0.073,-0.041,-0.138
2026-09-02 07:32:17.700,-0.02,-0.029,-0.967,0.277,0.44,0.1,-0.18,-0.015,-0.017,-0.028
2026-09-02 07:32:17.800,-0.02,-0.029,-0.967,0.277,0.13,-0.06,0.29,0.07,0.088,-0.143
2026-09-02 07:32:17.900,-0.02,-0.029,-0.967,0.277,0.24,0.03,0.16,0.001,-0.077,0.022
2026-09-02 07:32:18.000,-0.02,-0.029,-0.967,0.277,0.32,0.08,-0.12,-0.009,0.071,0.082
2026-09-02 07:32:18.100,-0.02,-0.029,-0.967,0.277,0.08,-0.08,-0.05,-0.124,-0.044,-0.101
2026-09-02 07:32:18.200,-0.02,-0.029,-0.967,0.277,0.33,0.27,0.05,-0.094,-0.052,0.023
2026-09-02 07:32:18.300,-0.02,-0.029,-0.967,0.277,0.09,-0.13,-0.22,-0.014,-0.074,-0.159
2026-09-02 07:32:18.400,-0.02,-0.028,-0.967,0.277,0.15,-0.06,-0.02,0.034,-0.009,-0.022
2026-09-02 07:32:18.500,-0.02,-0.028,-0.967,0.277,0.07,0.16,0.25,0.005,0.032,-0.059
2026-09-02 07:32:18.600,-0.02,-0.028,-0.967,0.277,0.34,0.03,-0.12,0.002,0.137,-0.04
2026-09-02 07:32:18.700,-0.02,-0.028,-0.967,0.277,0.5,0.02,-0.16,-0.065,-0.043,-0.05
2026-09-02 07:32:18.800,-0.02,-0.028,-0.967,0.277,0.27,0.01,-0.14,0.028,-0.02,-0.009
2026-09-02 07:32:18.900,-0.02,-0.028,-0.967,0.277,0.18,-0.11,0.12,0.142,0.045,0.045
2026-09-02 07:32:19.000,-0.02,-0.028,-0.967,0.277,0.1,-0.02,0.28,0.023,-0.118,0.095
2026-09-02 07:32:19.100,-0.02,-0.028,-0.967,0.278,0.2,0.04,0.05,0.055,-0.021,0.025
2026-09-02 07:32:19.200,-0.02,-0.028,-0.967,0.278,0.24,0.34,-0.3,0.053,-0.019,-0.021
2026-09-02 07:32:19.300,-0.02,-0.028,-0.967,0.278,0.06,0.07,-0.11,0.102,0.013,0.053
2026-09-02 07:32:19.400,-0.02,-0.028,-0.966,0.278,0.27,-0.36,0.02,-0.006,-0.045,-0.033
2026-09-02 07:32:19.500,-0.02,-0.028,-0.966,0.278,0.22,0.11,-0.09,0.017,-0.025,0.049
2026-09-02 07:32:19.600,-0.02,-0.028,-0.966,0.278,0.08,0.02,0.04,-0.046,0.037,0.116
2026-09-02 07:32:19.700,-0.02,-0.028,-0.966,0.278,-0.02,-0.18,0.18,0.062,-0.004,0.028
2026-09-02 07:32:19.800,-0.02,-0.028,-0.966,0.278,0.27,-0.28,0.22,0.042,-0.019,-0.062
2026-09-02 07:32:19.900,-0.02,-0.028,-0.966,0.278,0.17,0.3,-0.27,-0.027,-0.014,-0.127
2026-09-02 07:32:20.000,-0.02,-0.028,-0.966,0.278,0.17,-0.17,0.05,-0.038,0.044,0.072
2026-09-02 07:32:20.100,-0.02,-0.028,-0.966,0.278,0.48,-0.04,0.05,-0.032,0.001,0.164
2026-09-02 07:32:20.200,-0.02,-0.028,-0.966,0.278,0.13,-0.22,0.05,0.023,-0.008,-0.091
2026-09-02 07:32:20.300,-0.02,-0.028,-0.966,0.278,0.0,0.16,-0.06,0.07,0.031,0.121
2026-09-02 07:32:20.400,-0.02,-0.028,-0.966,0.278,0.27,0.06,-0.16,0.004,0.018,0.207
2026-09-02 07:32:20.500,-0.02,-0.028,-0.966,0.278,0.12,-0.24,0.02,-0.049,-0.034,-0.032
2026-09-02 07:32:20.600,-0.02,-0.028,-0.966,0.278,0.28,-0.13,-0.21,0.023,-0.086,-0.003
2026-09-02 07:32:20.700,-0.02,-0.028,-0.966,0.278,0.19,0.35,0.05,-0.028,-0.069,-0.083
2026-09-02 07:32:20.800,-0.02,-0.028,-0.966,0.278,0.43,-0.08,0.0,0.047,-0.077,0.036
2026-09-02 07:32:20.900,-0.02,-0.028,-0.966,0.278,0.12,0.08,-0.09,-0.031,-0.007,0.057
2026-09-02 07:32:21.000,-0.02,-0.028,-0.966,0.278,0.17,-0.27,0.13,-0.03,0.053,-0.05
2026-09-02 07:32:21.100,-0.02,-0.028,-0.966,0.278,0.25,-0.14,0.01,0.053,-0.061,-0.045
2026-09-02 07:32:21.200,-0.02,-0.028,-0.966,0.278,0.17,-0.11,-0.15,-0.046,-0.003,-0.073
2026-09-02 07:32:21.300,-0.02,-0.028,-0.966,0.278,0.21,-0.13,-0.17,0.016,-0.078,-0.07
2026-09-02 07:32:21.400,-0.02,-0.028,-0.966,0.278,0.53,0.3,-0.06,0.104,0.025,0.019
2026-09-02 07:32:21.500,-0.02,-0.028,-0.966,0.278,0.24,-0.04,-0.15,0.012,-0.068,-0.014
2026-09-02 07:32:21.600,-0.02,-0.028,-0.966,0.278,0.28,0.22,0.09,-0.086,0.055,0.038
2026-09-02 07:32:21.700,-0.02,-0.028,-0.966,0.278,0.32,-0.0,0.0,-0.063,-0.032,0.031
2026-09-02 07:32:21.800,-0.02,-0.028,-0.966,0.278,-0.03,-0.35,0.15,0.007,0.048,-0.041
2026-09-02 07:32:21.900,-0.02,-0.028,-0.966,0.278,0.35,-0.22,0.37,-0.07,-0.068,-0.009
2026-09-02 07:32:22.000,-0.02,-0.028,-0.966,0.278,0.47,-0.01,0.14,0.016,-0.058,0.026
2026-09-02 07:32:22.100,-0.02,-0.028,-0.966,0.278,0.34,0.16,-0.13,0.055,0.043,0.111
