timestamp,quat_i,quat_j,quat_k,quat_real,accel_x,accel_y,accel_z,gyro_x,gyro_y,gyro_z
2026-09-02T13:15:39.657518,-0.23895263671875,0.0240478515625,-0.3975830078125,0.88555908203125,0.8359375,-3.71484375,8.6484375,0.0,0.0,0.0
2026-09-02T13:15:39.783197,-0.2388916015625,0.02398681640625,-0.3975830078125,0.88555908203125,0.828125,-3.69140625,8.5859375,-0.00390625,-0.00390625,0.0
2026-09-02T13:15:39.884506,-0.2388916015625,0.02392578125,-0.3975830078125,0.8856201171875,0.84375,-3.54296875,8.296875,-0.001953125,0.0,0.0
2026-09-02T13:15:39.982994,-0.21502685546875,0.03424072265625,-0.3968505859375,0.89166259765625,0.8203125,-3.44921875,8.109375,-0.001953125,-0.00390625,0.0
2026-09-02T13:15:40.076702,-0.2060546875,0.0379638671875,-0.39654541015625,0.893798828125,0.0,0.02734375,0.0,0.0,0.0,0.001953125
2026-09-02T13:15:40.167598,-0.20574951171875,0.0380859375,-0.39654541015625,0.89385986328125,-0.0078125,0.02734375,-0.0078125,0.001953125,0.001953125,0.0
2026-09-02T13:15:40.282364,-0.205078125,0.03826904296875,-0.39654541015625,0.89404296875,0.03125,0.02734375,-0.046875,0.001953125,0.0,0.0
2026-09-02T13:15:40.380842,-0.20465087890625,0.038330078125,-0.396484375,0.89410400390625,-0.015625,-0.01171875,0.03125,0.0,0.0,0.001953125
2026-09-02T13:15:40.481448,-0.20428466796875,0.03839111328125,-0.396484375,0.89422607421875,-0.0546875,-0.01171875,0.03125,0.00390625,0.001953125,0.0
2026-09-02T13:15:40.580630,-0.2039794921875,0.03839111328125,-0.396484375,0.894287109375,-0.015625,-0.00390625,0.03125,0.005859375,0.00390625,0.0
2026-09-02T13:15:40.683886,-0.20379638671875,0.03851318359375,-0.39642333984375,0.89434814453125,-0.015625,-0.00390625,-0.0078125,-0.001953125,0.001953125,0.0
2026-09-02T13:15:40.778026,-0.20361328125,0.03857421875,-0.39642333984375,0.89434814453125,0.0234375,0.03515625,-0.0078125,0.001953125,0.001953125,0.001953125
2026-09-02T13:15:40.898241,-0.2034912109375,0.03863525390625,-0.39642333984375,0.8944091796875,-0.0546875,-0.01171875,0.03125,-0.005859375,-0.001953125,-0.001953125
2026-09-02T13:15:40.979544,-0.2032470703125,0.03863525390625,-0.39642333984375,0.89447021484375,-0.0546875,-0.01171875,0.03125,0.0,-0.001953125,0.001953125
2026-09-02T13:15:41.076613,-0.20306396484375,0.03863525390625,1.6036376953125,0.89453125,-0.015625,0.02734375,-0.046875,0.0,0.0,0.0
2026-09-02T13:15:41.179087,-0.202880859375,0.0386962890625,-0.3963623046875,0.89453125,-0.015625,-0.01171875,0.03125,-0.00390625,-0.00390625,0.0
2026-09-02T13:15:41.275793,-0.2027587890625,0.0386962890625,-0.3963623046875,0.89459228515625,-0.015625,0.02734375,-0.015625,-0.00390625,0.0,0.001953125
2026-09-02T13:15:41.378099,-0.20263671875,0.0386962890625,-0.3963623046875,0.89459228515625,-0.0078125,-0.01171875,0.0234375,0.00390625,0.0,0.0
2026-09-02T13:15:41.468456,-0.20257568359375,0.03875732421875,-0.3963623046875,0.8946533203125,0.03125,0.02734375,-0.0078125,0.0,0.0,0.0
2026-09-02T13:15:41.560380,-0.2025146484375,0.038818359375,-0.3963623046875,0.8946533203125,0.03125,-0.01171875,0.0234375,0.001953125,0.001953125,0.001953125
2026-09-02T13:15:41.780825,-0.20233154296875,0.03887939453125,-0.3963623046875,0.89471435546875,-0.015625,-0.01171875,0.03125,-0.001953125,-0.001953125,0.0
2026-09-02T13:15:41.876428,-0.20220947265625,0.0389404296875,-0.39630126953125,-1.10528564453125,-0.0078125,0.02734375,0.0234375,0.0,0.0,0.0
2026-09-02T13:15:41.974358,-0.2021484375,0.03900146484375,-0.39630126953125,0.89471435546875,0.03125,0.01953125,-0.0546875,0.0,0.0,0.0
2026-09-02T13:15:42.072723,-0.2020263671875,0.03900146484375,-0.39630126953125,0.894775390625,-0.015625,-0.01171875,-0.0546875,0.0,0.0,0.0
2026-09-02T13:15:42.175680,-0.20196533203125,0.03900146484375,-0.3963623046875,0.894775390625,0.0234375,-0.01171875,-0.015625,0.0,0.0,0.0
2026-09-02T13:15:42.275745,-0.201904296875,0.03900146484375,-0.3963623046875,0.894775390625,-0.015625,0.02734375,-0.015625,0.0,0.0,0.0
2026-09-02T13:15:42.376745,-0.20184326171875,0.03900146484375,-0.3963623046875,0.894775390625,-0.0078125,-0.01171875,0.0234375,0.0,0.0,0.0
2026-09-02T13:15:42.474814,-0.2017822265625,0.0390625,-0.39630126953125,-1.105224609375,0.03125,-0.01171875,0.0234375,0.0,0.0,0.0
2026-09-02T13:15:42.574643,-0.2017822265625,0.0390625,-0.39630126953125,0.89483642578125,-0.015625,0.02734375,0.0234375,0.0,0.0,0.0
2026-09-02T13:15:42.675012,-0.2017822265625,0.0390625,-0.39630126953125,0.89483642578125,0.0234375,-0.01171875,0.015625,0.0,0.0,0.0
2026-09-02T13:15:42.775395,-0.20172119140625,0.03900146484375,-0.3963623046875,0.89483642578125,-0.0234375,-0.01171875,-0.0625,0.0,0.0,0.0
2026-09-02T13:15:42.875314,-0.20172119140625,0.03900146484375,-0.3963623046875,0.89483642578125,0.0234375,-0.01171875,0.015625,0.0,0.0,0.0
2026-09-02T13:15:42.975574,-0.20166015625,0.03900146484375,-0.3963623046875,0.90264892578125,-0.015625,0.02734375,0.015625,0.0,0.0,0.0
2026-09-02T13:15:43.076110,-0.19384765625,-1.96099853515625,-0.3963623046875,0.89483642578125,-0.015625,0.02734375,-0.015625,0.0,0.0,0.0
2026-09-02T13:15:43.175946,-0.20166015625,0.03900146484375,-0.3963623046875,0.89483642578125,-0.0234375,-0.01171875,0.0234375,0.0,0.0,0.0
2026-09-02T13:15:43.276153,-0.20166015625,0.0389404296875,-0.3963623046875,0.89483642578125,0.0234375,0.02734375,-0.0625,0.0,0.0,-0.001953125
2026-09-02T13:15:43.375822,-0.2015380859375,0.0389404296875,-0.3963623046875,0.89483642578125,-0.015625,-0.01171875,0.0234375,0.00390625,-0.001953125,0.0
2026-09-02T13:15:43.475669,-0.2015380859375,0.03887939453125,-0.39642333984375,0.89483642578125,-0.015625,-0.01171875,0.0234375,-0.001953125,-0.001953125,0.001953125
2026-09-02T13:15:43.576528,-0.2015380859375,0.0389404296875,-0.3963623046875,0.89483642578125,0.015625,0.02734375,-0.015625,0.001953125,0.0,0.001953125
2026-09-02T13:15:43.675999,-0.2015380859375,0.03887939453125,-0.3963623046875,0.89483642578125,0.0234375,-0.01171875,0.0234375,0.001953125,-0.001953125,0.0
2026-09-02T13:15:43.775918,-0.20159912109375,0.0389404296875,-0.3963623046875,0.89483642578125,-0.015625,-0.01171875,0.0234375,-0.005859375,0.00390625,0.001953125
2026-09-02T13:15:43.875112,-0.20159912109375,0.03887939453125,-0.3963623046875,0.89483642578125,-0.015625,-0.01171875,0.0234375,0.0,-0.001953125,0.0
2026-09-02T13:15:43.975475,-0.20159912109375,0.03887939453125,-0.3963623046875,0.89483642578125,0.0234375,0.03515625,-0.0546875,0.0,0.00390625,0.001953125
2026-09-02T13:15:44.076162,-0.20159912109375,0.03887939453125,-0.3963623046875,0.89483642578125,0.05078125,-0.00390625,0.0234375,0.001953125,0.0,0.0
2026-09-02T13:15:44.193598,-0.20159912109375,0.03887939453125,-0.3963623046875,0.89483642578125,0.015625,-0.01171875,0.0234375,0.0,-0.00390625,0.0
2026-09-02T13:15:44.287447,-0.20166015625,0.03887939453125,-0.3963623046875,0.89483642578125,-0.015625,-0.01171875,0.0234375,-0.001953125,0.0,-0.00390625
2026-09-02T13:15:44.383867,-0.20159912109375,0.03887939453125,-0.3963623046875,0.89483642578125,-0.015625,0.02734375,-0.046875,0.0,0.00390625,0.0
2026-09-02T13:15:44.475134,-0.20166015625,0.03887939453125,-0.39642333984375,0.89483642578125,0.0234375,-0.01171875,0.03125,-0.00390625,0.0,-0.001953125
2026-09-02T13:15:44.575771,-0.20166015625,0.03887939453125,-0.3963623046875,0.89483642578125,0.015625,-0.01171875,0.0234375,0.001953125,0.001953125,0.0
2026-09-02T13:15:44.681839,-0.20172119140625,0.038818359375,-0.3963623046875,0.89483642578125,0.015625,-0.01171875,-0.015625,0.0,0.0,0.0
2026-09-02T13:15:44.783179,-0.20166015625,0.038818359375,-0.3963623046875,0.89483642578125,-0.0625,-0.01171875,0.0234375,0.0,-0.001953125,-0.00390625
2026-09-02T13:15:44.882354,-0.20172119140625,0.03875732421875,-0.3963623046875,0.89483642578125,-0.0234375,0.02734375,0.0234375,0.00390625,-0.001953125,0.001953125
2026-09-02T13:15:44.980006,-0.20166015625,0.03875732421875,-0.3963623046875,0.89483642578125,0.05078125,-0.01171875,0.0234375,0.0,0.0,0.0
2026-09-02T13:15:45.081895,-0.20166015625,0.0386962890625,-0.3963623046875,0.89483642578125,-0.0234375,-0.05078125,0.0546875,0.0,0.0,0.0
2026-09-02T13:15:45.181723,-0.20166015625,0.0386962890625,-0.3963623046875,0.89483642578125,0.015625,-0.00390625,0.0234375,0.0,0.0,0.0
2026-09-02T13:15:45.281096,-0.20166015625,0.0386962890625,-0.3963623046875,0.89483642578125,0.015625,-0.00390625,0.015625,0.0,0.0,0.0
2026-09-02T13:15:45.382656,-0.20172119140625,0.0386962890625,-0.3963623046875,0.89483642578125,0.015625,0.03515625,-0.5625,0.0,0.0,0.0
2026-09-02T13:15:45.483763,-0.20172119140625,0.04656982421875,-0.3963623046875,0.89483642578125,-0.0234375,0.03515625,-0.0625,0.0,0.0,0.0
2026-09-02T13:15:45.581807,-0.20172119140625,0.03875732421875,-0.3963623046875,0.89483642578125,-0.0234375,-0.01171875,-0.0234375,0.0,0.0,0.0
2026-09-02T13:15:45.683246,-0.20172119140625,0.0386962890625,-0.3963623046875,0.89483642578125,-0.0625,0.52734375,-0.0234375,0.0,0.0,0.0
2026-09-02T13:15:45.788107,-0.20172119140625,0.0386962890625,-0.3963623046875,0.89483642578125,-0.015625,-0.01171875,-0.015625,0.0,0.0,0.0
2026-09-02T13:15:45.990862,-0.20172119140625,0.0386962890625,-0.3963623046875,0.89483642578125,0.05078125,0.02734375,-0.015625,0.0,0.0,0.0
2026-09-02T13:15:46.086273,-0.20172119140625,0.03863525390625,-0.3963623046875,0.89483642578125,-0.0703125,-0.01171875,0.0234375,0.0,0.0,0.0
2026-09-02T13:15:46.189522,-0.20172119140625,0.03863525390625,-0.3963623046875,0.89483642578125,0.05078125,0.02734375,-0.0546875,0.0,0.0,0.0
2026-09-02T13:15:46.289643,-0.20172119140625,0.04644775390625,-0.4041748046875,0.89483642578125,0.08984375,-0.01171875,0.0234375,0.0,0.0,0.0
2026-09-02T13:15:46.388554,-0.20172119140625,0.03863525390625,-0.3963623046875,0.89483642578125,0.04296875,-0.01171875,-0.015625,0.0,0.0,0.0
2026-09-02T13:15:46.486865,-0.2017822265625,0.03857421875,-0.3963623046875,-1.10516357421875,-0.03125,0.03515625,-0.0546875,0.0,0.0,0.0
2026-09-02T13:15:46.595896,-0.2017822265625,0.03857421875,-0.3963623046875,0.894775390625,0.04296875,-0.00390625,-0.015625,0.0,0.0,0.0
2026-09-02T13:15:46.686575,-0.20184326171875,0.03857421875,-0.3963623046875,0.894775390625,0.0078125,0.03515625,-0.015625,0.0,0.0,0.0
2026-09-02T13:15:46.796180,-0.201904296875,0.03851318359375,-0.3963623046875,0.894775390625,-0.03125,-0.01171875,0.0234375,0.0,0.0,0.0
2026-09-02T13:15:46.888237,-0.201904296875,0.03851318359375,-0.3963623046875,0.894775390625,0.0078125,-0.00390625,0.015625,0.0,0.0,0.0
2026-09-02T13:15:46.995792,-0.201904296875,0.03851318359375,-0.3963623046875,0.894775390625,0.015625,-0.00390625,0.015625,0.0,0.0,0.0
2026-09-02T13:15:47.087215,-0.201904296875,0.03857421875,-0.3963623046875,0.894775390625,0.015625,-0.00390625,0.0234375,0.0,0.0,0.0
2026-09-02T13:15:47.189181,-0.201904296875,-1.96142578125,-0.3963623046875,0.894775390625,0.05078125,-0.00390625,-0.015625,0.0,0.0,0.0
2026-09-02T13:15:47.287670,-0.201904296875,0.03857421875,-0.3963623046875,0.894775390625,-0.03125,-0.00390625,0.0234375,0.0,0.0,0.0
2026-09-02T13:15:47.393562,-0.20196533203125,0.03857421875,-0.3963623046875,0.894775390625,-0.0625,-0.00390625,0.0234375,0.0,0.0,0.0
2026-09-02T13:15:47.495003,-0.201904296875,0.0386962890625,-0.3963623046875,0.894775390625,-0.0078125,-0.01171875,-0.0234375,0.0,0.0,0.0
2026-09-02T13:15:47.588114,-0.20184326171875,0.03875732421875,-0.39630126953125,0.894775390625,0.0234375,-0.04296875,0.0625,0.0,0.0,0.0
2026-09-02T13:15:47.693989,-0.20184326171875,0.03875732421875,-0.39630126953125,0.894775390625,0.05078125,-0.00390625,-0.0546875,0.0,0.0,0.0
2026-09-02T13:15:47.786979,-0.20184326171875,0.0386962890625,-0.3963623046875,0.894775390625,0.04296875,0.02734375,-0.015625,0.0,0.0,0.0
2026-09-02T13:15:47.894870,-0.20184326171875,0.0386962890625,-0.3963623046875,0.894775390625,-0.140625,-0.01171875,0.0625,0.00390625,0.0,-0.00390625
2026-09-02T13:15:48.111742,-0.20172119140625,0.03875732421875,-0.3963623046875,0.90264892578125,0.05078125,0.02734375,0.0234375,0.00390625,0.0,-0.00390625
2026-09-02T13:15:48.211236,-0.20172119140625,0.0386962890625,-0.3963623046875,0.89483642578125,0.0078125,-0.01171875,-0.0234375,-0.001953125,0.00390625,0.0
2026-09-02T13:15:48.313253,1.79827880859375,0.0386962890625,-0.39642333984375,0.894775390625,0.0078125,-0.01171875,0.0234375,-0.00390625,-0.001953125,-0.00390625
2026-09-02T13:15:48.410292,-0.20172119140625,0.03863525390625,-0.39642333984375,0.894775390625,-0.0234375,0.02734375,-0.015625,0.00390625,0.0,0.001953125
2026-09-02T13:15:48.509419,-0.20166015625,0.03863525390625,1.60357666015625,0.89483642578125,0.015625,-0.01953125,-0.015625,0.0,0.001953125,-0.00390625
2026-09-02T13:15:48.611159,1.79833984375,-1.96142578125,-0.396484375,0.894775390625,-0.03125,-0.01953125,0.0234375,0.0,0.0,0.001953125
2026-09-02T13:15:48.711521,-0.20159912109375,0.03857421875,-0.396484375,0.89483642578125,-0.03125,0.01953125,-0.015625,-0.00390625,0.0,0.001953125
2026-09-02T13:15:48.809313,-0.20166015625,0.03851318359375,-0.39642333984375,0.89483642578125,-0.0234375,-0.01171875,-0.015625,0.0,-0.001953125,0.001953125
2026-09-02T13:15:48.911808,-0.20166015625,0.03851318359375,-0.396484375,0.894775390625,0.0234375,-0.01171875,-0.015625,0.00390625,0.0,-0.001953125
2026-09-02T13:15:49.011238,-0.20166015625,0.03857421875,-0.396484375,0.894775390625,0.0234375,-0.01171875,0.0234375,0.0,0.0,-0.00390625
2026-09-02T13:15:49.109495,-0.20166015625,0.03863525390625,-0.396484375,0.894775390625,0.015625,-0.00390625,-0.0234375,-0.001953125,-0.001953125,-0.001953125
2026-09-02T13:15:49.205998,-0.20166015625,0.03863525390625,-0.396484375,0.894775390625,0.0078125,-0.00390625,0.015625,-0.00390625,-0.00390625,0.00390625
2026-09-02T13:15:49.305780,-0.20166015625,0.03863525390625,-0.396484375,0.894775390625,-0.0234375,-0.00390625,0.0078125,-0.00390625,-0.001953125,0.0
2026-09-02T13:15:49.405657,-0.20166015625,0.03857421875,-0.396484375,0.894775390625,0.0234375,0.03515625,-0.03125,0.001953125,-0.001953125,0.0
2026-09-02T13:15:49.505272,-0.20166015625,0.0386962890625,-0.39642333984375,0.89483642578125,-0.015625,-0.01171875,0.0078125,0.0,0.0,0.001953125
2026-09-02T13:15:49.606804,-0.20159912109375,0.0386962890625,-0.39642333984375,0.89483642578125,0.015625,-0.00390625,0.015625,0.0,-0.001953125,0.001953125
2026-09-02T13:15:49.708001,-0.19378662109375,-1.9534912109375,-0.39642333984375,0.89483642578125,-0.0234375,0.03515625,-0.0234375,0.0,-0.001953125,-0.001953125
2026-09-02T13:15:49.806787,-0.20166015625,0.03863525390625,-0.3963623046875,0.89483642578125,0.015625,0.03515625,-0.0234375,-0.001953125,-0.001953125,0.0
2026-09-02T13:15:49.907734,-0.20172119140625,0.04644775390625,-0.3963623046875,0.89483642578125,0.05078125,0.02734375,-0.0234375,-0.001953125,0.0,0.00390625
2026-09-02T13:15:50.007567,-0.20166015625,0.03863525390625,-0.3963623046875,0.89483642578125,0.015625,-0.01171875,0.015625,0.0,0.0,0.0
2026-09-02T13:15:50.107609,-0.20166015625,0.03863525390625,-0.3963623046875,0.89483642578125,0.0078125,-0.01171875,0.015625,0.0,-0.001953125,0.0
2026-09-02T13:15:50.208308,-0.20166015625,0.03857421875,-0.39642333984375,0.89483642578125,-0.0234375,-0.01171875,-0.015625,0.0,0.0,-0.001953125
2026-09-02T13:15:50.308931,-0.20166015625,0.03857421875,-0.3963623046875,0.89483642578125,0.015625,0.02734375,-0.015625,0.00390625,0.0,0.001953125
2026-09-02T13:15:50.408824,-0.20166015625,0.03857421875,-0.39642333984375,0.89483642578125,0.015625,-0.01171875,0.03125,-0.00390625,-0.001953125,0.001953125
2026-09-02T13:15:50.508707,-0.20172119140625,0.03857421875,-0.39642333984375,0.90264892578125,0.015625,-0.01171875,0.0234375,0.0,-0.001953125,0.0
2026-09-02T13:15:50.609312,-0.20172119140625,0.03857421875,-0.39642333984375,0.89483642578125,0.0078125,-0.01171875,0.0234375,0.00390625,0.0,0.0
2026-09-02T13:15:50.708427,-0.20172119140625,0.03857421875,-0.39642333984375,0.894775390625,0.0078125,-0.01171875,-0.015625,0.0,0.0,-0.00390625
2026-09-02T13:15:50.808703,-0.2017822265625,0.03857421875,-0.39642333984375,0.894775390625,0.0078125,-0.00390625,0.015625,0.0,-0.001953125,0.0
2026-09-02T13:15:50.909315,-0.20184326171875,0.03851318359375,-0.39642333984375,0.894775390625,0.0078125,-0.00390625,0.015625,0.0,0.0,0.0
2026-09-02T13:15:51.010362,-0.20184326171875,0.03851318359375,-0.39642333984375,0.894775390625,0.0078125,-0.00390625,0.015625,0.0,0.0,0.0
2026-09-02T13:15:51.110161,-0.20184326171875,0.03851318359375,-0.39642333984375,0.894775390625,-0.0234375,0.03515625,-0.0546875,0.0,0.0,0.0
2026-09-02T13:15:51.219434,-0.20184326171875,0.03851318359375,-0.39642333984375,0.894775390625,0.015625,0.03515625,-0.0625,0.0,0.0,0.0
2026-09-02T13:15:51.307919,-0.201904296875,0.03857421875,-0.3963623046875,0.894775390625,0.015625,-0.00390625,-0.0234375,0.0,0.0,0.0
2026-09-02T13:15:51.523832,-0.201904296875,0.03857421875,-0.3963623046875,0.894775390625,-0.03125,-0.01171875,0.0234375,0.0,0.0,0.0
2026-09-02T13:15:51.618411,-0.201904296875,0.03857421875,-0.3963623046875,0.894775390625,0.0078125,0.02734375,-0.015625,0.0,0.0,0.0
2026-09-02T13:15:51.719990,-0.201904296875,-1.96148681640625,-0.3963623046875,0.894775390625,0.015625,-0.01171875,-0.015625,0.0,0.0,0.0
2026-09-02T13:15:51.819760,-0.201904296875,0.03851318359375,-0.3963623046875,0.894775390625,0.0078125,0.03515625,-0.015625,0.0,0.0,0.0
2026-09-02T13:15:51.918816,-0.201904296875,0.03851318359375,-0.3963623046875,0.894775390625,0.0078125,-0.00390625,0.0234375,0.0,0.0,0.0
2026-09-02T13:15:52.018450,-0.20196533203125,0.03851318359375,-0.3963623046875,0.894775390625,0.0078125,0.02734375,-0.0546875,0.0,0.0,0.0
2026-09-02T13:15:52.121062,-0.20196533203125,0.03851318359375,1.60357666015625,0.894775390625,-0.03125,-0.01171875,-0.015625,0.0,0.0,0.0
2026-09-02T13:15:52.221577,-0.201904296875,0.0384521484375,-0.39642333984375,0.894775390625,0.015625,-0.01171875,-0.015625,0.0,0.0,0.0
2026-09-02T13:15:52.325658,-0.201904296875,0.0384521484375,-0.39642333984375,0.894775390625,0.015625,-0.01171875,0.0625,0.0,0.0,0.0
2026-09-02T13:15:52.426611,-0.20184326171875,0.03851318359375,-0.39642333984375,0.894775390625,-0.0234375,0.02734375,-0.0546875,0.0,0.0,0.0
2026-09-02T13:15:52.521270,-0.20184326171875,0.03851318359375,-0.39642333984375,0.894775390625,0.015625,-0.01171875,0.0234375,0.0,0.0,0.0
2026-09-02T13:15:52.621341,-0.20184326171875,0.03851318359375,-0.39642333984375,0.894775390625,-0.0234375,-0.01171875,0.0234375,0.0,0.0,0.0
2026-09-02T13:15:52.720999,-0.20184326171875,0.03851318359375,-0.39642333984375,0.894775390625,-0.03125,-0.01171875,0.0703125,0.0,0.0,0.0
2026-09-02T13:15:52.819482,-0.20184326171875,0.03851318359375,-0.39642333984375,0.894775390625,0.015625,-0.01171875,-0.015625,0.0,0.0,0.0
2026-09-02T13:15:52.920339,-0.2017822265625,0.03857421875,-0.39642333984375,0.894775390625,0.015625,-0.01171875,0.03125,0.0,0.0,0.0
2026-09-02T13:15:53.019529,-0.2017822265625,0.03857421875,-0.3963623046875,0.894775390625,-0.03125,-0.01171875,0.0234375,0.0,0.0,0.0
2026-09-02T13:15:53.121734,-0.2017822265625,0.03857421875,-0.39642333984375,0.894775390625,0.0078125,0.02734375,-0.015625,0.0,0.0,0.0
2026-09-02T13:15:53.219396,-0.2017822265625,0.03851318359375,-0.39642333984375,0.894775390625,-0.0234375,0.02734375,-0.015625,0.0,0.0,0.0
2026-09-02T13:15:53.321558,-0.2017822265625,0.03851318359375,-0.39642333984375,0.894775390625,0.015625,-0.01171875,0.0234375,0.0,0.0,0.0
2026-09-02T13:15:53.421927,-0.2017822265625,0.03851318359375,-0.39642333984375,0.894775390625,0.0078125,0.02734375,-0.0234375,0.0,0.0,0.0
2026-09-02T13:15:53.519623,-0.2017822265625,0.03851318359375,-0.39642333984375,0.894775390625,0.0078125,-0.01171875,-0.0234375,0.0,0.0,0.0
2026-09-02T13:15:53.618266,-0.2017822265625,0.03851318359375,-0.39642333984375,0.894775390625,0.0078125,-0.51171875,-0.0234375,0.0,0.0,0.0
2026-09-02T13:15:53.717863,-0.2017822265625,0.0384521484375,-0.39642333984375,0.894775390625,0.0078125,0.02734375,-0.0234375,0.0,0.0,0.0
2026-09-02T13:15:53.818189,-0.2017822265625,0.0384521484375,-0.39642333984375,0.894775390625,0.0078125,-0.01171875,-0.0234375,0.0,0.0,0.0
2026-09-02T13:15:53.918084,-0.2017822265625,0.0384521484375,-0.39642333984375,-1.105224609375,0.0078125,-0.04296875,0.0625,0.0,0.0,0.0
2026-09-02T13:15:54.018336,-0.20184326171875,0.0384521484375,-0.39642333984375,0.894775390625,0.0078125,0.03515625,-0.0234375,0.0,0.0,0.0
2026-09-02T13:15:54.119917,-0.20184326171875,0.0384521484375,-0.39642333984375,0.894775390625,0.0078125,0.03515625,-0.015625,0.0,0.0,0.0
2026-09-02T13:15:54.339791,-0.201904296875,0.0384521484375,-0.39642333984375,0.894775390625,0.015625,0.03515625,-0.015625,0.0,0.0,0.0
2026-09-02T13:15:54.437599,-0.201904296875,0.0384521484375,-0.39642333984375,0.894775390625,-0.03125,0.02734375,-0.0625,0.0,0.0,0.0
2026-09-02T13:15:54.537175,-0.201904296875,0.0384521484375,-0.39642333984375,0.894775390625,0.0078125,-0.01171875,-0.015625,0.0,0.0,0.0
2026-09-02T13:15:54.630441,-0.201904296875,0.03839111328125,-0.39642333984375,0.894775390625,-0.03125,-0.01171875,0.0625,0.0,0.0,0.0
2026-09-02T13:15:54.735363,-0.201904296875,0.03839111328125,-0.39642333984375,0.894775390625,0.0078125,-0.01171875,0.0234375,0.0,0.0,0.0
2026-09-02T13:15:54.830335,-0.201904296875,0.03839111328125,-0.39642333984375,0.894775390625,0.0078125,-0.00390625,-0.015625,0.0,0.0,0.0
2026-09-02T13:15:54.938340,-0.201904296875,0.03839111328125,-0.39642333984375,0.894775390625,0.0078125,0.03515625,0.015625,0.0,0.0,0.0
2026-09-02T13:15:55.030796,-0.201904296875,0.03839111328125,-0.39642333984375,0.894775390625,0.0078125,-0.00390625,0.015625,0.0,0.0,0.0
2026-09-02T13:15:55.358065,-0.201904296875,0.03839111328125,-0.39642333984375,0.894775390625,0.0078125,-0.00390625,-0.015625,0.0,0.0,0.0
2026-09-02T13:15:55.559678,-0.2020263671875,0.03839111328125,-0.39642333984375,0.894775390625,0.0078125,0.02734375,0.0234375,0.0,0.0,0.0
2026-09-02T13:15:55.659607,-0.20196533203125,0.03839111328125,-0.39642333984375,0.894775390625,-0.03125,-0.01171875,-0.0234375,0.0,0.0,0.0
2026-09-02T13:15:55.758695,-0.20196533203125,0.03839111328125,-0.39642333984375,0.894775390625,0.0078125,-0.01171875,0.0234375,0.0,0.0,0.0
2026-09-02T13:15:55.859163,-0.20196533203125,0.038330078125,-0.39642333984375,0.894775390625,-0.03125,-0.00390625,-0.015625,0.0,0.0,0.0
2026-09-02T13:15:55.960648,-0.20196533203125,0.038330078125,-0.39642333984375,0.894775390625,0.0078125,0.03515625,-0.0546875,0.0,0.0,0.0
2026-09-02T13:15:56.059480,-0.20196533203125,0.038330078125,-0.39642333984375,0.894775390625,0.0078125,-0.00390625,0.0234375,0.0,0.0,0.0
2026-09-02T13:15:56.161100,-0.2020263671875,0.03839111328125,-0.39642333984375,0.894775390625,-0.03125,-0.01171875,-0.015625,0.0,0.0,0.0
2026-09-02T13:15:56.265564,-0.2020263671875,0.03839111328125,-0.39642333984375,0.894775390625,0.04296875,0.02734375,0.0234375,0.0,0.0,0.0
2026-09-02T13:15:56.363770,-0.20196533203125,0.038330078125,-0.39642333984375,0.894775390625,-0.03125,-0.01171875,-0.0234375,0.0,0.0,0.0
2026-09-02T13:15:56.462492,-0.20196533203125,0.038330078125,-0.39642333984375,0.894775390625,0.0078125,-0.00390625,0.0234375,0.0,0.0,0.0
2026-09-02T13:15:56.561493,-0.20196533203125,0.038330078125,-0.39642333984375,0.894775390625,0.0078125,-0.01171875,0.015625,0.0,0.0,0.0
2026-09-02T13:15:56.662650,-0.201904296875,0.038330078125,-0.39642333984375,0.894775390625,-0.03125,-0.01171875,0.0546875,0.0,-0.001953125,-0.001953125
2026-09-02T13:15:56.876399,-0.201904296875,0.038330078125,-0.39642333984375,0.894775390625,-0.03125,-0.01171875,0.015625,0.0,-0.001953125,-0.00390625
2026-09-02T13:15:56.975376,-0.201904296875,0.03839111328125,-0.39642333984375,0.894775390625,0.015625,-0.01171875,0.0234375,-0.00390625,-0.001953125,0.0
2026-09-02T13:15:57.074874,-0.201904296875,0.03839111328125,-0.39642333984375,0.894775390625,0.015625,0.02734375,-0.015625,0.001953125,0.0,0.0
2026-09-02T13:15:57.179725,-0.201904296875,0.038330078125,-0.39642333984375,0.894775390625,0.0078125,-0.01171875,-0.0546875,-0.001953125,0.0,0.001953125
2026-09-02T13:15:57.709485,-0.20196533203125,0.038330078125,-0.396484375,-1.558349609375,0.0078125,0.03515625,0.0234375,0.001953125,0.00390625,-0.00390625
2026-09-02T13:15:57.809719,-0.20196533203125,0.038330078125,-0.396484375,-1.558349609375,0.0078125,0.03515625,0.0234375,0.001953125,0.00390625,-0.00390625
2026-09-02T13:15:57.909708,-0.20196533203125,0.038330078125,-0.396484375,-1.558349609375,0.0078125,0.03515625,0.0234375,0.001953125,0.00390625,-0.00390625
2026-09-02T13:15:58.009941,-0.20196533203125,0.038330078125,-0.396484375,-1.558349609375,0.0078125,0.03515625,0.0234375,0.001953125,0.00390625,-0.00390625
2026-09-02T13:15:58.110041,-0.20196533203125,0.038330078125,-0.396484375,-1.558349609375,0.0078125,0.03515625,0.0234375,0.001953125,0.00390625,-0.00390625
2026-09-02T13:15:58.210101,-0.20196533203125,0.038330078125,-0.396484375,-1.558349609375,0.0078125,0.03515625,0.0234375,0.001953125,0.00390625,-0.00390625
2026-09-02T13:15:58.310059,-0.20196533203125,0.038330078125,-0.396484375,-1.558349609375,0.0078125,0.03515625,0.0234375,0.001953125,0.00390625,-0.00390625
2026-09-02T13:15:58.410198,-0.20196533203125,0.038330078125,-0.396484375,-1.558349609375,0.0078125,0.03515625,0.0234375,0.001953125,0.00390625,-0.00390625
2026-09-02T13:15:58.510358,-0.20196533203125,0.038330078125,-0.396484375,-1.558349609375,0.0078125,0.03515625,0.0234375,0.001953125,0.00390625,-0.00390625
2026-09-02T13:15:58.609715,-0.20196533203125,0.038330078125,-0.396484375,-1.558349609375,0.0078125,0.03515625,0.0234375,0.001953125,0.00390625,-0.00390625
2026-09-02T13:15:58.710538,-0.20196533203125,0.038330078125,-0.396484375,-1.558349609375,0.0078125,0.03515625,0.0234375,0.001953125,0.00390625,-0.00390625
2026-09-02T13:15:58.810637,-0.20196533203125,0.038330078125,-0.396484375,-1.558349609375,0.0078125,0.03515625,0.0234375,0.001953125,0.00390625,-0.00390625
2026-09-02T13:15:58.910852,-0.20196533203125,0.038330078125,-0.396484375,-1.558349609375,0.0078125,0.03515625,0.0234375,0.001953125,0.00390625,-0.00390625
2026-09-02T13:15:59.010803,-0.20196533203125,0.038330078125,-0.396484375,-1.558349609375,0.0078125,0.03515625,0.0234375,0.001953125,0.00390625,-0.00390625
2026-09-02T13:15:59.110987,-0.20196533203125,0.038330078125,-0.396484375,-1.558349609375,0.0078125,0.03515625,0.0234375,0.001953125,0.00390625,-0.00390625
2026-09-02T13:15:59.211301,-0.20196533203125,0.038330078125,-0.396484375,-1.558349609375,0.0078125,0.03515625,0.0234375,0.001953125,0.00390625,-0.00390625
2026-09-02T13:15:59.311060,-0.20196533203125,0.038330078125,-0.396484375,-1.558349609375,0.0078125,0.03515625,0.0234375,0.001953125,0.00390625,-0.00390625
2026-09-02T13:15:59.411347,-0.20196533203125,0.038330078125,-0.396484375,-1.558349609375,0.0078125,0.03515625,0.0234375,0.001953125,0.00390625,-0.00390625
2026-09-02T13:15:59.511437,-0.20196533203125,0.038330078125,-0.396484375,-1.558349609375,0.0078125,0.03515625,0.0234375,0.001953125,0.00390625,-0.00390625
2026-09-02T13:15:59.611411,-0.20196533203125,0.038330078125,-0.396484375,-1.558349609375,0.0078125,0.03515625,0.0234375,0.001953125,0.00390625,-0.00390625
2026-09-02T13:15:59.711528,-0.20196533203125,0.038330078125,-0.396484375,-1.558349609375,0.0078125,0.03515625,0.0234375,0.001953125,0.00390625,-0.00390625
2026-09-02T13:15:59.811701,-0.20196533203125,0.038330078125,-0.396484375,-1.558349609375,0.0078125,0.03515625,0.0234375,0.001953125,0.00390625,-0.00390625
2026-09-02T13:15:59.911724,-0.20196533203125,0.038330078125,-0.396484375,-1.558349609375,0.0078125,0.03515625,0.0234375,0.001953125,0.00390625,-0.00390625
2026-09-02T13:16:00.011824,-0.20196533203125,0.038330078125,-0.396484375,-1.558349609375,0.0078125,0.03515625,0.0234375,0.001953125,0.00390625,-0.00390625
2026-09-02T13:16:00.111951,-0.20196533203125,0.038330078125,-0.396484375,-1.558349609375,0.0078125,0.03515625,0.0234375,0.001953125,0.00390625,-0.00390625
2026-09-02T13:16:00.212034,-0.20196533203125,0.038330078125,-0.396484375,-1.558349609375,0.0078125,0.03515625,0.0234375,0.001953125,0.00390625,-0.00390625
2026-09-02T13:16:00.312286,-0.20196533203125,0.038330078125,-0.396484375,-1.558349609375,0.0078125,0.03515625,0.0234375,0.001953125,0.00390625,-0.00390625
2026-09-02T13:16:00.412297,-0.20196533203125,0.038330078125,-0.396484375,-1.558349609375,0.0078125,0.03515625,0.0234375,0.001953125,0.00390625,-0.00390625
2026-09-02T13:16:00.512271,-0.20196533203125,0.038330078125,-0.396484375,-1.558349609375,0.0078125,0.03515625,0.0234375,0.001953125,0.00390625,-0.00390625
2026-09-02T13:16:00.612470,-0.20196533203125,0.038330078125,-0.396484375,-1.558349609375,0.0078125,0.03515625,0.0234375,0.001953125,0.00390625,-0.00390625
2026-09-02T13:16:00.712493,-0.20196533203125,0.038330078125,-0.396484375,-1.558349609375,0.0078125,0.03515625,0.0234375,0.001953125,0.00390625,-0.00390625
2026-09-02T13:16:00.812687,-0.20196533203125,0.038330078125,-0.396484375,-1.558349609375,0.0078125,0.03515625,0.0234375,0.001953125,0.00390625,-0.00390625
2026-09-02T13:16:00.912682,-0.20196533203125,0.038330078125,-0.396484375,-1.558349609375,0.0078125,0.03515625,0.0234375,0.001953125,0.00390625,-0.00390625
2026-09-02T13:16:01.012783,-0.20196533203125,0.038330078125,-0.396484375,-1.558349609375,0.0078125,0.03515625,0.0234375,0.001953125,0.00390625,-0.00390625
2026-09-02T13:16:01.112961,-0.20196533203125,0.038330078125,-0.396484375,-1.558349609375,0.0078125,0.03515625,0.0234375,0.001953125,0.00390625,-0.00390625
2026-09-02T13:16:01.213193,-0.20196533203125,0.038330078125,-0.396484375,-1.558349609375,0.0078125,0.03515625,0.0234375,0.001953125,0.00390625,-0.00390625
2026-09-02T13:16:01.313078,-0.20196533203125,0.038330078125,-0.396484375,-1.558349609375,0.0078125,0.03515625,0.0234375,0.001953125,0.00390625,-0.00390625
2026-09-02T13:16:01.413189,-0.20196533203125,0.038330078125,-0.396484375,-1.558349609375,0.0078125,0.03515625,0.0234375,0.001953125,0.00390625,-0.00390625
2026-09-02T13:16:01.513378,-0.20196533203125,0.038330078125,-0.396484375,-1.558349609375,0.0078125,0.03515625,0.0234375,0.001953125,0.00390625,-0.00390625
2026-09-02T13:16:01.613403,-0.20196533203125,0.038330078125,-0.396484375,-1.558349609375,0.0078125,0.03515625,0.0234375,0.001953125,0.00390625,-0.00390625
2026-09-02T13:16:01.713596,-0.20196533203125,0.038330078125,-0.396484375,-1.558349609375,0.0078125,0.03515625,0.0234375,0.001953125,0.00390625,-0.00390625
2026-09-02T13:16:01.813645,-0.20196533203125,0.038330078125,-0.396484375,-1.558349609375,0.0078125,0.03515625,0.0234375,0.001953125,0.00390625,-0.00390625
2026-09-02T13:16:01.913797,-0.20196533203125,0.038330078125,-0.396484375,-1.558349609375,0.0078125,0.03515625,0.0234375,0.001953125,0.00390625,-0.00390625
2026-09-02T13:16:02.013821,-0.20196533203125,0.038330078125,-0.396484375,-1.558349609375,0.0078125,0.03515625,0.0234375,0.001953125,0.00390625,-0.00390625
2026-09-02T13:16:02.113916,-0.20196533203125,0.038330078125,-0.396484375,-1.558349609375,0.0078125,0.03515625,0.0234375,0.001953125,0.00390625,-0.00390625
2026-09-02T13:16:02.214003,-0.20196533203125,0.038330078125,-0.396484375,-1.558349609375,0.0078125,0.03515625,0.0234375,0.001953125,0.00390625,-0.00390625
2026-09-02T13:16:02.314267,-0.20196533203125,0.038330078125,-0.396484375,-1.558349609375,0.0078125,0.03515625,0.0234375,0.001953125,0.00390625,-0.00390625
2026-09-02T13:16:02.414214,-0.20196533203125,0.038330078125,-0.396484375,-1.558349609375,0.0078125,0.03515625,0.0234375,0.001953125,0.00390625,-0.00390625
2026-09-02T13:16:02.514247,-0.20196533203125,0.038330078125,-0.396484375,-1.558349609375,0.0078125,0.03515625,0.0234375,0.001953125,0.00390625,-0.00390625
2026-09-02T13:16:02.614480,-0.20196533203125,0.038330078125,-0.396484375,-1.558349609375,0.0078125,0.03515625,0.0234375,0.001953125,0.00390625,-0.00390625
2026-09-02T13:16:02.714443,-0.20196533203125,0.038330078125,-0.396484375,-1.558349609375,0.0078125,0.03515625,0.0234375,0.001953125,0.00390625,-0.00390625
2026-09-02T13:16:02.814690,-0.20196533203125,0.038330078125,-0.396484375,-1.558349609375,0.0078125,0.03515625,0.0234375,0.001953125,0.00390625,-0.00390625
2026-09-02T13:16:02.914638,-0.20196533203125,0.038330078125,-0.396484375,-1.558349609375,0.0078125,0.03515625,0.0234375,0.001953125,0.00390625,-0.00390625
2026-09-02T13:16:03.014994,-0.20196533203125,0.038330078125,-0.396484375,-1.558349609375,0.0078125,0.03515625,0.0234375,0.001953125,0.00390625,-0.00390625
2026-09-02T13:16:03.114843,-0.20196533203125,0.038330078125,-0.396484375,-1.558349609375,0.0078125,0.03515625,0.0234375,0.001953125,0.00390625,-0.00390625
2026-09-02T13:16:03.215339,-0.20196533203125,0.038330078125,-0.396484375,-1.558349609375,0.0078125,0.03515625,0.0234375,0.001953125,0.00390625,-0.00390625
2026-09-02T13:16:03.315038,-0.20196533203125,0.038330078125,-0.396484375,-1.558349609375,0.0078125,0.03515625,0.0234375,0.001953125,0.00390625,-0.00390625
2026-09-02T13:16:03.415224,-0.20196533203125,0.038330078125,-0.396484375,-1.558349609375,0.0078125,0.03515625,0.0234375,0.001953125,0.00390625,-0.00390625
2026-09-02T13:16:03.515226,-0.20196533203125,0.038330078125,-0.396484375,-1.558349609375,0.0078125,0.03515625,0.0234375,0.001953125,0.00390625,-0.00390625
2026-09-02T13:16:03.615387,-0.20196533203125,0.038330078125,-0.396484375,-1.558349609375,0.0078125,0.03515625,0.0234375,0.001953125,0.00390625,-0.00390625
2026-09-02T13:16:03.715212,-0.20196533203125,0.038330078125,-0.396484375,-1.558349609375,0.0078125,0.03515625,0.0234375,0.001953125,0.00390625,-0.00390625
2026-09-02T13:16:03.815526,-0.20196533203125,0.038330078125,-0.396484375,-1.558349609375,0.0078125,0.03515625,0.0234375,0.001953125,0.00390625,-0.00390625
2026-09-02T13:16:03.915663,-0.20196533203125,0.038330078125,-0.396484375,-1.558349609375,0.0078125,0.03515625,0.0234375,0.001953125,0.00390625,-0.00390625
2026-09-02T13:16:04.015806,-0.20196533203125,0.038330078125,-0.396484375,-1.558349609375,0.0078125,0.03515625,0.0234375,0.001953125,0.00390625,-0.00390625
2026-09-02T13:16:04.115802,-0.20196533203125,0.038330078125,-0.396484375,-1.558349609375,0.0078125,0.03515625,0.0234375,0.001953125,0.00390625,-0.00390625
2026-09-02T13:16:04.216033,-0.20196533203125,0.038330078125,-0.396484375,-1.558349609375,0.0078125,0.03515625,0.0234375,0.001953125,0.00390625,-0.00390625
2026-09-02T13:16:04.316023,-0.20196533203125,0.038330078125,-0.396484375,-1.558349609375,0.0078125,0.03515625,0.0234375,0.001953125,0.00390625,-0.00390625
2026-09-02T13:16:04.416162,-0.20196533203125,0.038330078125,-0.396484375,-1.558349609375,0.0078125,0.03515625,0.0234375,0.001953125,0.00390625,-0.00390625
2026-09-02T13:16:04.516303,-0.20196533203125,0.038330078125,-0.396484375,-1.558349609375,0.0078125,0.03515625,0.0234375,0.001953125,0.00390625,-0.00390625
2026-09-02T13:16:04.616301,-0.20196533203125,0.038330078125,-0.396484375,-1.558349609375,0.0078125,0.03515625,0.0234375,0.001953125,0.00390625,-0.00390625
2026-09-02T13:16:04.716545,-0.20196533203125,0.038330078125,-0.396484375,-1.558349609375,0.0078125,0.03515625,0.0234375,0.001953125,0.00390625,-0.00390625
2026-09-02T13:16:04.816477,-0.20196533203125,0.038330078125,-0.396484375,-1.558349609375,0.0078125,0.03515625,0.0234375,0.001953125,0.00390625,-0.00390625
2026-09-02T13:16:04.916687,-0.20196533203125,0.038330078125,-0.396484375,-1.558349609375,0.0078125,0.03515625,0.0234375,0.001953125,0.00390625,-0.00390625
2026-09-02T13:16:05.016808,-0.20196533203125,0.038330078125,-0.396484375,-1.558349609375,0.0078125,0.03515625,0.0234375,0.001953125,0.00390625,-0.00390625
2026-09-02T13:16:05.116795,-0.20196533203125,0.038330078125,-0.396484375,-1.558349609375,0.0078125,0.03515625,0.0234375,0.001953125,0.00390625,-0.00390625
2026-09-02T13:16:05.216986,-0.20196533203125,0.038330078125,-0.396484375,-1.558349609375,0.0078125,0.03515625,0.0234375,0.001953125,0.00390625,-0.00390625
2026-09-02T13:16:05.317049,-0.20196533203125,0.038330078125,-0.396484375,-1.558349609375,0.0078125,0.03515625,0.0234375,0.001953125,0.00390625,-0.00390625
2026-09-02T13:16:05.417306,-0.20196533203125,0.038330078125,-0.396484375,-1.558349609375,0.0078125,0.03515625,0.0234375,0.001953125,0.00390625,-0.00390625
2026-09-02T13:16:05.517234,-0.20196533203125,0.038330078125,-0.396484375,-1.558349609375,0.0078125,0.03515625,0.0234375,0.001953125,0.00390625,-0.00390625
2026-09-02T13:16:05.617420,-0.20196533203125,0.038330078125,-0.396484375,-1.558349609375,0.0078125,0.03515625,0.0234375,0.001953125,0.00390625,-0.00390625
2026-09-02T13:16:05.717532,-0.20196533203125,0.038330078125,-0.396484375,-1.558349609375,0.0078125,0.03515625,0.0234375,0.001953125,0.00390625,-0.00390625
2026-09-02T13:16:05.817907,-0.20196533203125,0.038330078125,-0.396484375,-1.558349609375,0.0078125,0.03515625,0.0234375,0.001953125,0.00390625,-0.00390625
2026-09-02T13:16:05.917778,-0.20196533203125,0.038330078125,-0.396484375,-1.558349609375,0.0078125,0.03515625,0.0234375,0.001953125,0.00390625,-0.00390625
2026-09-02T13:16:06.017926,-0.20196533203125,0.038330078125,-0.396484375,-1.558349609375,0.0078125,0.03515625,0.0234375,0.001953125,0.00390625,-0.00390625
2026-09-02T13:16:06.118226,-0.20196533203125,0.038330078125,-0.396484375,-1.558349609375,0.0078125,0.03515625,0.0234375,0.001953125,0.00390625,-0.00390625
2026-09-02T13:16:06.218203,-0.20196533203125,0.038330078125,-0.396484375,-1.558349609375,0.0078125,0.03515625,0.0234375,0.001953125,0.00390625,-0.00390625
2026-09-02T13:16:06.318415,-0.20196533203125,0.038330078125,-0.396484375,-1.558349609375,0.0078125,0.03515625,0.0234375,0.001953125,0.00390625,-0.00390625
2026-09-02T13:16:06.418444,-0.20196533203125,0.038330078125,-0.396484375,-1.558349609375,0.0078125,0.03515625,0.0234375,0.001953125,0.00390625,-0.00390625
2026-09-02T13:16:06.518883,-0.20196533203125,0.038330078125,-0.396484375,-1.558349609375,0.0078125,0.03515625,0.0234375,0.001953125,0.00390625,-0.00390625
2026-09-02T13:16:06.618602,-0.20196533203125,0.038330078125,-0.396484375,-1.558349609375,0.0078125,0.03515625,0.0234375,0.001953125,0.00390625,-0.00390625
2026-09-02T13:16:06.718690,-0.20196533203125,0.038330078125,-0.396484375,-1.558349609375,0.0078125,0.03515625,0.0234375,0.001953125,0.00390625,-0.00390625
2026-09-02T13:16:06.818793,-0.20196533203125,0.038330078125,-0.396484375,-1.558349609375,0.0078125,0.03515625,0.0234375,0.001953125,0.00390625,-0.00390625
2026-09-02T13:16:06.918947,-0.20196533203125,0.038330078125,-0.396484375,-1.558349609375,0.0078125,0.03515625,0.0234375,0.001953125,0.00390625,-0.00390625
2026-09-02T13:16:07.019059,-0.20196533203125,0.038330078125,-0.396484375,-1.558349609375,0.0078125,0.03515625,0.0234375,0.001953125,0.00390625,-0.00390625
2026-09-02T13:16:07.119308,-0.20196533203125,0.038330078125,-0.396484375,-1.558349609375,0.0078125,0.03515625,0.0234375,0.001953125,0.00390625,-0.00390625
2026-09-02T13:16:07.219267,-0.20196533203125,0.038330078125,-0.396484375,-1.558349609375,0.0078125,0.03515625,0.0234375,0.001953125,0.00390625,-0.00390625
2026-09-02T13:16:07.319442,-0.20196533203125,0.038330078125,-0.396484375,-1.558349609375,0.0078125,0.03515625,0.0234375,0.001953125,0.00390625,-0.00390625
2026-09-02T13:16:07.419481,-0.20196533203125,0.038330078125,-0.396484375,-1.558349609375,0.0078125,0.03515625,0.0234375,0.001953125,0.00390625,-0.00390625
2026-09-02T13:16:07.519750,-0.20196533203125,0.038330078125,-0.396484375,-1.558349609375,0.0078125,0.03515625,0.0234375,0.001953125,0.00390625,-0.00390625
2026-09-02T13:16:07.619816,-0.20196533203125,0.038330078125,-0.396484375,-1.558349609375,0.0078125,0.03515625,0.0234375,0.001953125,0.00390625,-0.00390625
2026-09-02T13:16:07.719843,-0.20196533203125,0.038330078125,-0.396484375,-1.558349609375,0.0078125,0.03515625,0.0234375,0.001953125,0.00390625,-0.00390625
2026-09-02T13:16:07.820026,-0.20196533203125,0.038330078125,-0.396484375,-1.558349609375,0.0078125,0.03515625,0.0234375,0.001953125,0.00390625,-0.00390625
2026-09-02T13:16:07.920208,-0.20196533203125,0.038330078125,-0.396484375,-1.558349609375,0.0078125,0.03515625,0.0234375,0.001953125,0.00390625,-0.00390625
2026-09-02T13:16:08.020242,-0.20196533203125,0.038330078125,-0.396484375,-1.558349609375,0.0078125,0.03515625,0.0234375,0.001953125,0.00390625,-0.00390625
2026-09-02T13:16:08.120438,-0.20196533203125,0.038330078125,-0.396484375,-1.558349609375,0.0078125,0.03515625,0.0234375,0.001953125,0.00390625,-0.00390625
2026-09-02T13:16:08.220687,-0.20196533203125,0.038330078125,-0.396484375,-1.558349609375,0.0078125,0.03515625,0.0234375,0.001953125,0.00390625,-0.00390625
2026-09-02T13:16:08.320608,-0.20196533203125,0.038330078125,-0.396484375,-1.558349609375,0.0078125,0.03515625,0.0234375,0.001953125,0.00390625,-0.00390625
2026-09-02T13:16:08.420776,-0.20196533203125,0.038330078125,-0.396484375,-1.558349609375,0.0078125,0.03515625,0.0234375,0.001953125,0.00390625,-0.00390625
2026-09-02T13:16:08.521156,-0.20196533203125,0.038330078125,-0.396484375,-1.558349609375,0.0078125,0.03515625,0.0234375,0.001953125,0.00390625,-0.00390625
2026-09-02T13:16:08.621023,-0.20196533203125,0.038330078125,-0.396484375,-1.558349609375,0.0078125,0.03515625,0.0234375,0.001953125,0.00390625,-0.00390625
2026-09-02T13:16:08.721243,-0.20196533203125,0.038330078125,-0.396484375,-1.558349609375,0.0078125,0.03515625,0.0234375,0.001953125,0.00390625,-0.00390625
2026-09-02T13:16:08.821317,-0.20196533203125,0.038330078125,-0.396484375,-1.558349609375,0.0078125,0.03515625,0.0234375,0.001953125,0.00390625,-0.00390625
2026-09-02T13:16:08.921304,-0.20196533203125,0.038330078125,-0.396484375,-1.558349609375,0.0078125,0.03515625,0.0234375,0.001953125,0.00390625,-0.00390625
2026-09-02T13:16:09.021567,-0.20196533203125,0.038330078125,-0.396484375,-1.558349609375,0.0078125,0.03515625,0.0234375,0.001953125,0.00390625,-0.00390625
2026-09-02T13:16:09.121580,-0.20196533203125,0.038330078125,-0.396484375,-1.558349609375,0.0078125,0.03515625,0.0234375,0.001953125,0.00390625,-0.00390625
2026-09-02T13:16:09.221850,-0.20196533203125,0.038330078125,-0.396484375,-1.558349609375,0.0078125,0.03515625,0.0234375,0.001953125,0.00390625,-0.00390625
2026-09-02T13:16:09.321805,-0.20196533203125,0.038330078125,-0.396484375,-1.558349609375,0.0078125,0.03515625,0.0234375,0.001953125,0.00390625,-0.00390625
2026-09-02T13:16:09.422294,-0.20196533203125,0.038330078125,-0.396484375,-1.558349609375,0.0078125,0.03515625,0.0234375,0.001953125,0.00390625,-0.00390625
2026-09-02T13:16:09.522023,-0.20196533203125,0.038330078125,-0.396484375,-1.558349609375,0.0078125,0.03515625,0.0234375,0.001953125,0.00390625,-0.00390625
2026-09-02T13:16:09.622121,-0.20196533203125,0.038330078125,-0.396484375,-1.558349609375,0.0078125,0.03515625,0.0234375,0.001953125,0.00390625,-0.00390625
2026-09-02T13:16:09.722477,-0.20196533203125,0.038330078125,-0.396484375,-1.558349609375,0.0078125,0.03515625,0.0234375,0.001953125,0.00390625,-0.00390625
2026-09-02T13:16:09.822365,-0.20196533203125,0.038330078125,-0.396484375,-1.558349609375,0.0078125,0.03515625,0.0234375,0.001953125,0.00390625,-0.00390625
2026-09-02T13:16:09.922527,-0.20196533203125,0.038330078125,-0.396484375,-1.558349609375,0.0078125,0.03515625,0.0234375,0.001953125,0.00390625,-0.00390625
2026-09-02T13:16:10.022589,-0.20196533203125,0.038330078125,-0.396484375,-1.558349609375,0.0078125,0.03515625,0.0234375,0.001953125,0.00390625,-0.00390625
2026-09-02T13:16:10.122734,-0.20196533203125,0.038330078125,-0.396484375,-1.558349609375,0.0078125,0.03515625,0.0234375,0.001953125,0.00390625,-0.00390625
2026-09-02T13:16:10.222529,-0.20196533203125,0.038330078125,-0.396484375,-1.558349609375,0.0078125,0.03515625,0.0234375,0.001953125,0.00390625,-0.00390625
2026-09-02T13:16:10.322998,-0.20196533203125,0.038330078125,-0.396484375,-1.558349609375,0.0078125,0.03515625,0.0234375,0.001953125,0.00390625,-0.00390625
2026-09-02T13:16:10.423508,-0.20196533203125,0.038330078125,-0.396484375,-1.558349609375,0.0078125,0.03515625,0.0234375,0.001953125,0.00390625,-0.00390625
2026-09-02T13:16:10.523232,-0.20196533203125,0.038330078125,-0.396484375,-1.558349609375,0.0078125,0.03515625,0.0234375,0.001953125,0.00390625,-0.00390625
2026-09-02T13:16:10.623361,-0.20196533203125,0.038330078125,-0.396484375,-1.558349609375,0.0078125,0.03515625,0.0234375,0.001953125,0.00390625,-0.00390625
2026-09-02T13:16:10.723461,-0.20196533203125,0.038330078125,-0.396484375,-1.558349609375,0.0078125,0.03515625,0.0234375,0.001953125,0.00390625,-0.00390625
2026-09-02T13:16:10.823412,-0.20196533203125,0.038330078125,-0.396484375,-1.558349609375,0.0078125,0.03515625,0.0234375,0.001953125,0.00390625,-0.00390625
2026-09-02T13:16:10.923626,-0.20196533203125,0.038330078125,-0.396484375,-1.558349609375,0.0078125,0.03515625,0.0234375,0.001953125,0.00390625,-0.00390625
2026-09-02T13:16:11.023882,-0.20196533203125,0.038330078125,-0.396484375,-1.558349609375,0.0078125,0.03515625,0.0234375,0.001953125,0.00390625,-0.00390625
2026-09-02T13:16:11.125098,-0.20196533203125,0.038330078125,-0.396484375,-1.558349609375,0.0078125,0.03515625,0.0234375,0.001953125,0.00390625,-0.00390625
2026-09-02T13:16:11.224525,-0.20196533203125,0.038330078125,-0.396484375,-1.558349609375,0.0078125,0.03515625,0.0234375,0.001953125,0.00390625,-0.00390625
2026-09-02T13:16:11.325100,-0.20196533203125,0.038330078125,-0.396484375,-1.558349609375,0.0078125,0.03515625,0.0234375,0.001953125,0.00390625,-0.00390625
2026-09-02T13:16:11.424270,-0.20196533203125,0.038330078125,-0.396484375,-1.558349609375,0.0078125,0.03515625,0.0234375,0.001953125,0.00390625,-0.00390625
2026-09-02T13:16:11.524432,-0.20196533203125,0.038330078125,-0.396484375,-1.558349609375,0.0078125,0.03515625,0.0234375,0.001953125,0.00390625,-0.00390625
2026-09-02T13:16:11.624428,-0.20196533203125,0.038330078125,-0.396484375,-1.558349609375,0.0078125,0.03515625,0.0234375,0.001953125,0.00390625,-0.00390625
2026-09-02T13:16:11.724618,-0.20196533203125,0.038330078125,-0.396484375,-1.558349609375,0.0078125,0.03515625,0.0234375,0.001953125,0.00390625,-0.00390625
2026-09-02T13:16:11.824582,-0.20196533203125,0.038330078125,-0.396484375,-1.558349609375,0.0078125,0.03515625,0.0234375,0.001953125,0.00390625,-0.00390625
2026-09-02T13:16:11.924840,-0.20196533203125,0.038330078125,-0.396484375,-1.558349609375,0.0078125,0.03515625,0.0234375,0.001953125,0.00390625,-0.00390625
2026-09-02T13:16:12.024783,-0.20196533203125,0.038330078125,-0.396484375,-1.558349609375,0.0078125,0.03515625,0.0234375,0.001953125,0.00390625,-0.00390625
2026-09-02T13:16:12.124935,-0.20196533203125,0.038330078125,-0.396484375,-1.558349609375,0.0078125,0.03515625,0.0234375,0.001953125,0.00390625,-0.00390625
2026-09-02T13:16:12.225098,-0.20196533203125,0.038330078125,-0.396484375,-1.558349609375,0.0078125,0.03515625,0.0234375,0.001953125,0.00390625,-0.00390625
2026-09-02T13:16:12.325122,-0.20196533203125,0.038330078125,-0.396484375,-1.558349609375,0.0078125,0.03515625,0.0234375,0.001953125,0.00390625,-0.00390625
2026-09-02T13:16:12.425312,-0.20196533203125,0.038330078125,-0.396484375,-1.558349609375,0.0078125,0.03515625,0.0234375,0.001953125,0.00390625,-0.00390625
2026-09-02T13:16:12.525312,-0.20196533203125,0.038330078125,-0.396484375,-1.558349609375,0.0078125,0.03515625,0.0234375,0.001953125,0.00390625,-0.00390625
2026-09-02T13:16:12.625367,-0.20196533203125,0.038330078125,-0.396484375,-1.558349609375,0.0078125,0.03515625,0.0234375,0.001953125,0.00390625,-0.00390625
2026-09-02T13:16:12.725527,-0.20196533203125,0.038330078125,-0.396484375,-1.558349609375,0.0078125,0.03515625,0.0234375,0.001953125,0.00390625,-0.00390625
2026-09-02T13:16:12.825656,-0.20196533203125,0.038330078125,-0.396484375,-1.558349609375,0.0078125,0.03515625,0.0234375,0.001953125,0.00390625,-0.00390625
2026-09-02T13:16:12.925709,-0.20196533203125,0.038330078125,-0.396484375,-1.558349609375,0.0078125,0.03515625,0.0234375,0.001953125,0.00390625,-0.00390625
2026-09-02T13:16:13.025798,-0.20196533203125,0.038330078125,-0.396484375,-1.558349609375,0.0078125,0.03515625,0.0234375,0.001953125,0.00390625,-0.00390625
2026-09-02T13:16:13.125983,-0.20196533203125,0.038330078125,-0.396484375,-1.558349609375,0.0078125,0.03515625,0.0234375,0.001953125,0.00390625,-0.00390625
2026-09-02T13:16:13.225979,-0.20196533203125,0.038330078125,-0.396484375,-1.558349609375,0.0078125,0.03515625,0.0234375,0.001953125,0.00390625,-0.00390625
2026-09-02T13:16:13.326192,-0.20196533203125,0.038330078125,-0.396484375,-1.558349609375,0.0078125,0.03515625,0.0234375,0.001953125,0.00390625,-0.00390625
2026-09-02T13:16:13.426179,-0.20196533203125,0.038330078125,-0.396484375,-1.558349609375,0.0078125,0.03515625,0.0234375,0.001953125,0.00390625,-0.00390625
2026-09-02T13:16:13.526259,-0.20196533203125,0.038330078125,-0.396484375,-1.558349609375,0.0078125,0.03515625,0.0234375,0.001953125,0.00390625,-0.00390625
2026-09-02T13:16:13.626376,-0.20196533203125,0.038330078125,-0.396484375,-1.558349609375,0.0078125,0.03515625,0.0234375,0.001953125,0.00390625,-0.00390625
2026-09-02T13:16:13.726478,-0.20196533203125,0.038330078125,-0.396484375,-1.558349609375,0.0078125,0.03515625,0.0234375,0.001953125,0.00390625,-0.00390625
2026-09-02T13:16:13.826610,-0.20196533203125,0.038330078125,-0.396484375,-1.558349609375,0.0078125,0.03515625,0.0234375,0.001953125,0.00390625,-0.00390625
2026-09-02T13:16:13.926717,-0.20196533203125,0.038330078125,-0.396484375,-1.558349609375,0.0078125,0.03515625,0.0234375,0.001953125,0.00390625,-0.00390625
2026-09-02T13:16:14.027964,-0.20196533203125,0.038330078125,-0.396484375,-1.558349609375,0.0078125,0.03515625,0.0234375,0.001953125,0.00390625,-0.00390625
2026-09-02T13:16:14.126916,-0.20196533203125,0.038330078125,-0.396484375,-1.558349609375,0.0078125,0.03515625,0.0234375,0.001953125,0.00390625,-0.00390625
2026-09-02T13:16:14.226996,-0.20196533203125,0.038330078125,-0.396484375,-1.558349609375,0.0078125,0.03515625,0.0234375,0.001953125,0.00390625,-0.00390625
2026-09-02T13:16:14.327119,-0.20196533203125,0.038330078125,-0.396484375,-1.558349609375,0.0078125,0.03515625,0.0234375,0.001953125,0.00390625,-0.00390625
2026-09-02T13:16:14.427222,-0.20196533203125,0.038330078125,-0.396484375,-1.558349609375,0.0078125,0.03515625,0.0234375,0.001953125,0.00390625,-0.00390625
2026-09-02T13:16:14.527447,-0.20196533203125,0.038330078125,-0.396484375,-1.558349609375,0.0078125,0.03515625,0.0234375,0.001953125,0.00390625,-0.00390625
2026-09-02T13:16:14.627424,-0.20196533203125,0.038330078125,-0.396484375,-1.558349609375,0.0078125,0.03515625,0.0234375,0.001953125,0.00390625,-0.00390625
2026-09-02T13:16:14.727537,-0.20196533203125,0.038330078125,-0.396484375,-1.558349609375,0.0078125,0.03515625,0.0234375,0.001953125,0.00390625,-0.00390625
2026-09-02T13:16:14.827669,-0.20196533203125,0.038330078125,-0.396484375,-1.558349609375,0.0078125,0.03515625,0.0234375,0.001953125,0.00390625,-0.00390625
2026-09-02T13:16:14.927718,-0.20196533203125,0.038330078125,-0.396484375,-1.558349609375,0.0078125,0.03515625,0.0234375,0.001953125,0.00390625,-0.00390625
2026-09-02T13:16:15.027797,-0.20196533203125,0.038330078125,-0.396484375,-1.558349609375,0.0078125,0.03515625,0.0234375,0.001953125,0.00390625,-0.00390625
2026-09-02T13:16:15.128172,-0.20196533203125,0.038330078125,-0.396484375,-1.558349609375,0.0078125,0.03515625,0.0234375,0.001953125,0.00390625,-0.00390625
2026-09-02T13:16:15.228019,-0.20196533203125,0.038330078125,-0.396484375,-1.558349609375,0.0078125,0.03515625,0.0234375,0.001953125,0.00390625,-0.00390625
2026-09-02T13:16:15.328221,-0.20196533203125,0.038330078125,-0.396484375,-1.558349609375,0.0078125,0.03515625,0.0234375,0.001953125,0.00390625,-0.00390625
2026-09-02T13:16:15.428276,-0.20196533203125,0.038330078125,-0.396484375,-1.558349609375,0.0078125,0.03515625,0.0234375,0.001953125,0.00390625,-0.00390625
2026-09-02T13:16:15.528393,-0.20196533203125,0.038330078125,-0.396484375,-1.558349609375,0.0078125,0.03515625,0.0234375,0.001953125,0.00390625,-0.00390625
2026-09-02T13:16:15.628393,-0.20196533203125,0.038330078125,-0.396484375,-1.558349609375,0.0078125,0.03515625,0.0234375,0.001953125,0.00390625,-0.00390625
2026-09-02T13:16:15.728159,-0.20196533203125,0.038330078125,-0.396484375,-1.558349609375,0.0078125,0.03515625,0.0234375,0.001953125,0.00390625,-0.00390625
2026-09-02T13:16:15.828590,-0.20196533203125,0.038330078125,-0.396484375,-1.558349609375,0.0078125,0.03515625,0.0234375,0.001953125,0.00390625,-0.00390625
2026-09-02T13:16:15.928789,-0.20196533203125,0.038330078125,-0.396484375,-1.558349609375,0.0078125,0.03515625,0.0234375,0.001953125,0.00390625,-0.00390625
2026-09-02T13:16:16.029140,-0.20196533203125,0.038330078125,-0.396484375,-1.558349609375,0.0078125,0.03515625,0.0234375,0.001953125,0.00390625,-0.00390625
2026-09-02T13:16:16.129030,-0.20196533203125,0.038330078125,-0.396484375,-1.558349609375,0.0078125,0.03515625,0.0234375,0.001953125,0.00390625,-0.00390625
2026-09-02T13:16:16.229164,-0.20196533203125,0.038330078125,-0.396484375,-1.558349609375,0.0078125,0.03515625,0.0234375,0.001953125,0.00390625,-0.00390625
2026-09-02T13:16:16.329395,-0.20196533203125,0.038330078125,-0.396484375,-1.558349609375,0.0078125,0.03515625,0.0234375,0.001953125,0.00390625,-0.00390625
2026-09-02T13:16:16.429313,-0.20196533203125,0.038330078125,-0.396484375,-1.558349609375,0.0078125,0.03515625,0.0234375,0.001953125,0.00390625,-0.00390625
2026-09-02T13:16:16.529559,-0.20196533203125,0.038330078125,-0.396484375,-1.558349609375,0.0078125,0.03515625,0.0234375,0.001953125,0.00390625,-0.00390625
2026-09-02T13:16:16.629528,-0.20196533203125,0.038330078125,-0.396484375,-1.558349609375,0.0078125,0.03515625,0.0234375,0.001953125,0.00390625,-0.00390625
2026-09-02T13:16:16.729347,-0.20196533203125,0.038330078125,-0.396484375,-1.558349609375,0.0078125,0.03515625,0.0234375,0.001953125,0.00390625,-0.00390625
2026-09-02T13:16:16.829808,-0.20196533203125,0.038330078125,-0.396484375,-1.558349609375,0.0078125,0.03515625,0.0234375,0.001953125,0.00390625,-0.00390625
2026-09-02T13:16:16.930221,-0.20196533203125,0.038330078125,-0.396484375,-1.558349609375,0.0078125,0.03515625,0.0234375,0.001953125,0.00390625,-0.00390625
2026-09-02T13:16:17.030032,-0.20196533203125,0.038330078125,-0.396484375,-1.558349609375,0.0078125,0.03515625,0.0234375,0.001953125,0.00390625,-0.00390625
2026-09-02T13:16:17.130286,-0.20196533203125,0.038330078125,-0.396484375,-1.558349609375,0.0078125,0.03515625,0.0234375,0.001953125,0.00390625,-0.00390625
2026-09-02T13:16:17.230042,-0.20196533203125,0.038330078125,-0.396484375,-1.558349609375,0.0078125,0.03515625,0.0234375,0.001953125,0.00390625,-0.00390625
2026-09-02T13:16:17.330495,-0.20196533203125,0.038330078125,-0.396484375,-1.558349609375,0.0078125,0.03515625,0.0234375,0.001953125,0.00390625,-0.00390625
2026-09-02T13:16:17.430461,-0.20196533203125,0.038330078125,-0.396484375,-1.558349609375,0.0078125,0.03515625,0.0234375,0.001953125,0.00390625,-0.00390625
2026-09-02T13:16:17.530567,-0.20196533203125,0.038330078125,-0.396484375,-1.558349609375,0.0078125,0.03515625,0.0234375,0.001953125,0.00390625,-0.00390625
2026-09-02T13:16:17.630848,-0.20196533203125,0.038330078125,-0.396484375,-1.558349609375,0.0078125,0.03515625,0.0234375,0.001953125,0.00390625,-0.00390625
2026-09-02T13:16:17.730785,-0.20196533203125,0.038330078125,-0.396484375,-1.558349609375,0.0078125,0.03515625,0.0234375,0.001953125,0.00390625,-0.00390625
2026-09-02T13:16:17.830919,-0.20196533203125,0.038330078125,-0.396484375,-1.558349609375,0.0078125,0.03515625,0.0234375,0.001953125,0.00390625,-0.00390625
2026-09-02T13:16:17.931365,-0.20196533203125,0.038330078125,-0.396484375,-1.558349609375,0.0078125,0.03515625,0.0234375,0.001953125,0.00390625,-0.00390625
2026-09-02T13:16:18.031173,-0.20196533203125,0.038330078125,-0.396484375,-1.558349609375,0.0078125,0.03515625,0.0234375,0.001953125,0.00390625,-0.00390625
2026-09-02T13:16:18.131312,-0.20196533203125,0.038330078125,-0.396484375,-1.558349609375,0.0078125,0.03515625,0.0234375,0.001953125,0.00390625,-0.00390625
2026-09-02T13:16:18.231335,-0.20196533203125,0.038330078125,-0.396484375,-1.558349609375,0.0078125,0.03515625,0.0234375,0.001953125,0.00390625,-0.00390625
2026-09-02T13:16:18.331803,-0.20196533203125,0.038330078125,-0.396484375,-1.558349609375,0.0078125,0.03515625,0.0234375,0.001953125,0.00390625,-0.00390625
2026-09-02T13:16:18.431581,-0.20196533203125,0.038330078125,-0.396484375,-1.558349609375,0.0078125,0.03515625,0.0234375,0.001953125,0.00390625,-0.00390625
2026-09-02T13:16:18.531790,-0.20196533203125,0.038330078125,-0.396484375,-1.558349609375,0.0078125,0.03515625,0.0234375,0.001953125,0.00390625,-0.00390625
2026-09-02T13:16:18.631959,-0.20196533203125,0.038330078125,-0.396484375,-1.558349609375,0.0078125,0.03515625,0.0234375,0.001953125,0.00390625,-0.00390625
2026-09-02T13:16:18.731932,-0.20196533203125,0.038330078125,-0.396484375,-1.558349609375,0.0078125,0.03515625,0.0234375,0.001953125,0.00390625,-0.00390625
2026-09-02T13:16:18.832200,-0.20196533203125,0.038330078125,-0.396484375,-1.558349609375,0.0078125,0.03515625,0.0234375,0.001953125,0.00390625,-0.00390625
2026-09-02T13:16:18.932766,-0.20196533203125,0.038330078125,-0.396484375,-1.558349609375,0.0078125,0.03515625,0.0234375,0.001953125,0.00390625,-0.00390625
2026-09-02T13:16:19.032484,-0.20196533203125,0.038330078125,-0.396484375,-1.558349609375,0.0078125,0.03515625,0.0234375,0.001953125,0.00390625,-0.00390625
2026-09-02T13:16:19.132784,-0.20196533203125,0.038330078125,-0.396484375,-1.558349609375,0.0078125,0.03515625,0.0234375,0.001953125,0.00390625,-0.00390625
2026-09-02T13:16:19.232705,-0.20196533203125,0.038330078125,-0.396484375,-1.558349609375,0.0078125,0.03515625,0.0234375,0.001953125,0.00390625,-0.00390625
2026-09-02T13:16:19.334623,-0.20196533203125,0.038330078125,-0.396484375,-1.558349609375,0.0078125,0.03515625,0.0234375,0.001953125,0.00390625,-0.00390625
2026-09-02T13:16:19.432998,-0.20196533203125,0.038330078125,-0.396484375,-1.558349609375,0.0078125,0.03515625,0.0234375,0.001953125,0.00390625,-0.00390625
2026-09-02T13:16:19.533046,-0.20196533203125,0.038330078125,-0.396484375,-1.558349609375,0.0078125,0.03515625,0.0234375,0.001953125,0.00390625,-0.00390625
2026-09-02T13:16:19.633358,-0.20196533203125,0.038330078125,-0.396484375,-1.558349609375,0.0078125,0.03515625,0.0234375,0.001953125,0.00390625,-0.00390625
2026-09-02T13:16:19.733436,-0.20196533203125,0.038330078125,-0.396484375,-1.558349609375,0.0078125,0.03515625,0.0234375,0.001953125,0.00390625,-0.00390625
2026-09-02T13:16:19.833499,-0.20196533203125,0.038330078125,-0.396484375,-1.558349609375,0.0078125,0.03515625,0.0234375,0.001953125,0.00390625,-0.00390625
2026-09-02T13:16:19.933803,-0.20196533203125,0.038330078125,-0.396484375,-1.558349609375,0.0078125,0.03515625,0.0234375,0.001953125,0.00390625,-0.00390625
2026-09-02T13:16:20.033859,-0.20196533203125,0.038330078125,-0.396484375,-1.558349609375,0.0078125,0.03515625,0.0234375,0.001953125,0.00390625,-0.00390625
2026-09-02T13:16:20.133937,-0.20196533203125,0.038330078125,-0.396484375,-1.558349609375,0.0078125,0.03515625,0.0234375,0.001953125,0.00390625,-0.00390625
2026-09-02T13:16:20.234268,-0.20196533203125,0.038330078125,-0.396484375,-1.558349609375,0.0078125,0.03515625,0.0234375,0.001953125,0.00390625,-0.00390625
2026-09-02T13:16:20.334124,-0.20196533203125,0.038330078125,-0.396484375,-1.558349609375,0.0078125,0.03515625,0.0234375,0.001953125,0.00390625,-0.00390625
2026-09-02T13:16:20.434321,-0.20196533203125,0.038330078125,-0.396484375,-1.558349609375,0.0078125,0.03515625,0.0234375,0.001953125,0.00390625,-0.00390625
2026-09-02T13:16:20.534368,-0.20196533203125,0.038330078125,-0.396484375,-1.558349609375,0.0078125,0.03515625,0.0234375,0.001953125,0.00390625,-0.00390625
2026-09-02T13:16:20.634489,-0.20196533203125,0.038330078125,-0.396484375,-1.558349609375,0.0078125,0.03515625,0.0234375,0.001953125,0.00390625,-0.00390625
2026-09-02T13:16:20.734644,-0.20196533203125,0.038330078125,-0.396484375,-1.558349609375,0.0078125,0.03515625,0.0234375,0.001953125,0.00390625,-0.00390625
2026-09-02T13:16:20.834798,-0.20196533203125,0.038330078125,-0.396484375,-1.558349609375,0.0078125,0.03515625,0.0234375,0.001953125,0.00390625,-0.00390625
2026-09-02T13:16:20.934953,-0.20196533203125,0.038330078125,-0.396484375,-1.558349609375,0.0078125,0.03515625,0.0234375,0.001953125,0.00390625,-0.00390625
2026-09-02T13:16:21.035127,-0.20196533203125,0.038330078125,-0.396484375,-1.558349609375,0.0078125,0.03515625,0.0234375,0.001953125,0.00390625,-0.00390625
2026-09-02T13:16:21.135042,-0.20196533203125,0.038330078125,-0.396484375,-1.558349609375,0.0078125,0.03515625,0.0234375,0.001953125,0.00390625,-0.00390625
2026-09-02T13:16:21.235546,-0.20196533203125,0.038330078125,-0.396484375,-1.558349609375,0.0078125,0.03515625,0.0234375,0.001953125,0.00390625,-0.00390625
2026-09-02T13:16:21.335311,-0.20196533203125,0.038330078125,-0.396484375,-1.558349609375,0.0078125,0.03515625,0.0234375,0.001953125,0.00390625,-0.00390625
2026-09-02T13:16:21.435484,-0.20196533203125,0.038330078125,-0.396484375,-1.558349609375,0.0078125,0.03515625,0.0234375,0.001953125,0.00390625,-0.00390625
2026-09-02T13:16:21.535594,-0.20196533203125,0.038330078125,-0.396484375,-1.558349609375,0.0078125,0.03515625,0.0234375,0.001953125,0.00390625,-0.00390625
2026-09-02T13:16:21.635756,-0.20196533203125,0.038330078125,-0.396484375,-1.558349609375,0.0078125,0.03515625,0.0234375,0.001953125,0.00390625,-0.00390625
2026-09-02T13:16:21.735873,-0.20196533203125,0.038330078125,-0.396484375,-1.558349609375,0.0078125,0.03515625,0.0234375,0.001953125,0.00390625,-0.00390625
2026-09-02T13:16:21.835862,-0.20196533203125,0.038330078125,-0.396484375,-1.558349609375,0.0078125,0.03515625,0.0234375,0.001953125,0.00390625,-0.00390625
2026-09-02T13:16:21.935987,-0.20196533203125,0.038330078125,-0.396484375,-1.558349609375,0.0078125,0.03515625,0.0234375,0.001953125,0.00390625,-0.00390625
2026-09-02T13:16:22.036171,-0.20196533203125,0.038330078125,-0.396484375,-1.558349609375,0.0078125,0.03515625,0.0234375,0.001953125,0.00390625,-0.00390625
2026-09-02T13:16:22.136250,-0.20196533203125,0.038330078125,-0.396484375,-1.558349609375,0.0078125,0.03515625,0.0234375,0.001953125,0.00390625,-0.00390625
2026-09-02T13:16:22.236716,-0.20196533203125,0.038330078125,-0.396484375,-1.558349609375,0.0078125,0.03515625,0.0234375,0.001953125,0.00390625,-0.00390625
2026-09-02T13:16:22.336466,-0.20196533203125,0.038330078125,-0.396484375,-1.558349609375,0.0078125,0.03515625,0.0234375,0.001953125,0.00390625,-0.00390625
2026-09-02T13:16:22.436579,-0.20196533203125,0.038330078125,-0.396484375,-1.558349609375,0.0078125,0.03515625,0.0234375,0.001953125,0.00390625,-0.00390625
2026-09-02T13:16:22.536749,-0.20196533203125,0.038330078125,-0.396484375,-1.558349609375,0.0078125,0.03515625,0.0234375,0.001953125,0.00390625,-0.00390625
2026-09-02T13:16:22.636787,-0.20196533203125,0.038330078125,-0.396484375,-1.558349609375,0.0078125,0.03515625,0.0234375,0.001953125,0.00390625,-0.00390625
2026-09-02T13:16:22.736910,-0.20196533203125,0.038330078125,-0.396484375,-1.558349609375,0.0078125,0.03515625,0.0234375,0.001953125,0.00390625,-0.00390625
2026-09-02T13:16:22.837137,-0.20196533203125,0.038330078125,-0.396484375,-1.558349609375,0.0078125,0.03515625,0.0234375,0.001953125,0.00390625,-0.00390625
2026-09-02T13:16:22.937135,-0.20196533203125,0.038330078125,-0.396484375,-1.558349609375,0.0078125,0.03515625,0.0234375,0.001953125,0.00390625,-0.00390625
2026-09-02T13:16:23.037255,-0.20196533203125,0.038330078125,-0.396484375,-1.558349609375,0.0078125,0.03515625,0.0234375,0.001953125,0.00390625,-0.00390625
2026-09-02T13:16:23.137497,-0.20196533203125,0.038330078125,-0.396484375,-1.558349609375,0.0078125,0.03515625,0.0234375,0.001953125,0.00390625,-0.00390625
2026-09-02T13:16:23.237497,-0.20196533203125,0.038330078125,-0.396484375,-1.558349609375,0.0078125,0.03515625,0.0234375,0.001953125,0.00390625,-0.00390625
2026-09-02T13:16:23.337629,-0.20196533203125,0.038330078125,-0.396484375,-1.558349609375,0.0078125,0.03515625,0.0234375,0.001953125,0.00390625,-0.00390625
2026-09-02T13:16:23.437744,-0.20196533203125,0.038330078125,-0.396484375,-1.558349609375,0.0078125,0.03515625,0.0234375,0.001953125,0.00390625,-0.00390625
2026-09-02T13:16:23.537821,-0.20196533203125,0.038330078125,-0.396484375,-1.558349609375,0.0078125,0.03515625,0.0234375,0.001953125,0.00390625,-0.00390625
2026-09-02T13:16:23.638103,-0.20196533203125,0.038330078125,-0.396484375,-1.558349609375,0.0078125,0.03515625,0.0234375,0.001953125,0.00390625,-0.00390625
2026-09-02T13:16:23.738041,-0.20196533203125,0.038330078125,-0.396484375,-1.558349609375,0.0078125,0.03515625,0.0234375,0.001953125,0.00390625,-0.00390625
2026-09-02T13:16:23.838157,-0.20196533203125,0.038330078125,-0.396484375,-1.558349609375,0.0078125,0.03515625,0.0234375,0.001953125,0.00390625,-0.00390625
2026-09-02T13:16:23.938305,-0.20196533203125,0.038330078125,-0.396484375,-1.558349609375,0.0078125,0.03515625,0.0234375,0.001953125,0.00390625,-0.00390625
2026-09-02T13:16:24.038434,-0.20196533203125,0.038330078125,-0.396484375,-1.558349609375,0.0078125,0.03515625,0.0234375,0.001953125,0.00390625,-0.00390625
2026-09-02T13:16:24.138759,-0.20196533203125,0.038330078125,-0.396484375,-1.558349609375,0.0078125,0.03515625,0.0234375,0.001953125,0.00390625,-0.00390625
2026-09-02T13:16:24.238607,-0.20196533203125,0.038330078125,-0.396484375,-1.558349609375,0.0078125,0.03515625,0.0234375,0.001953125,0.00390625,-0.00390625
2026-09-02T13:16:24.338775,-0.20196533203125,0.038330078125,-0.396484375,-1.558349609375,0.0078125,0.03515625,0.0234375,0.001953125,0.00390625,-0.00390625
2026-09-02T13:16:24.438831,-0.20196533203125,0.038330078125,-0.396484375,-1.558349609375,0.0078125,0.03515625,0.0234375,0.001953125,0.00390625,-0.00390625
2026-09-02T13:16:24.538980,-0.20196533203125,0.038330078125,-0.396484375,-1.558349609375,0.0078125,0.03515625,0.0234375,0.001953125,0.00390625,-0.00390625
2026-09-02T13:16:24.639362,-0.20196533203125,0.038330078125,-0.396484375,-1.558349609375,0.0078125,0.03515625,0.0234375,0.001953125,0.00390625,-0.00390625
2026-09-02T13:16:24.739313,-0.20196533203125,0.038330078125,-0.396484375,-1.558349609375,0.0078125,0.03515625,0.0234375,0.001953125,0.00390625,-0.00390625
2026-09-02T13:16:24.839394,-0.20196533203125,0.038330078125,-0.396484375,-1.558349609375,0.0078125,0.03515625,0.0234375,0.001953125,0.00390625,-0.00390625
2026-09-02T13:16:24.939388,-0.20196533203125,0.038330078125,-0.396484375,-1.558349609375,0.0078125,0.03515625,0.0234375,0.001953125,0.00390625,-0.00390625
2026-09-02T13:16:25.039472,-0.20196533203125,0.038330078125,-0.396484375,-1.558349609375,0.0078125,0.03515625,0.0234375,0.001953125,0.00390625,-0.00390625
2026-09-02T13:16:25.139645,-0.20196533203125,0.038330078125,-0.396484375,-1.558349609375,0.0078125,0.03515625,0.0234375,0.001953125,0.00390625,-0.00390625
2026-09-02T13:16:25.239846,-0.20196533203125,0.038330078125,-0.396484375,-1.558349609375,0.0078125,0.03515625,0.0234375,0.001953125,0.00390625,-0.00390625
2026-09-02T13:16:25.340068,-0.20196533203125,0.038330078125,-0.396484375,-1.558349609375,0.0078125,0.03515625,0.0234375,0.001953125,0.00390625,-0.00390625
2026-09-02T13:16:25.440022,-0.20196533203125,0.038330078125,-0.396484375,-1.558349609375,0.0078125,0.03515625,0.0234375,0.001953125,0.00390625,-0.00390625
2026-09-02T13:16:25.540178,-0.20196533203125,0.038330078125,-0.396484375,-1.558349609375,0.0078125,0.03515625,0.0234375,0.001953125,0.00390625,-0.00390625
2026-09-02T13:16:25.640241,-0.20196533203125,0.038330078125,-0.396484375,-1.558349609375,0.0078125,0.03515625,0.0234375,0.001953125,0.00390625,-0.00390625
2026-09-02T13:16:25.740554,-0.20196533203125,0.038330078125,-0.396484375,-1.558349609375,0.0078125,0.03515625,0.0234375,0.001953125,0.00390625,-0.00390625
2026-09-02T13:16:25.840447,-0.20196533203125,0.038330078125,-0.396484375,-1.558349609375,0.0078125,0.03515625,0.0234375,0.001953125,0.00390625,-0.00390625
2026-09-02T13:16:25.940578,-0.20196533203125,0.038330078125,-0.396484375,-1.558349609375,0.0078125,0.03515625,0.0234375,0.001953125,0.00390625,-0.00390625
2026-09-02T13:16:26.040806,-0.20196533203125,0.038330078125,-0.396484375,-1.558349609375,0.0078125,0.03515625,0.0234375,0.001953125,0.00390625,-0.00390625
2026-09-02T13:16:26.140772,-0.20196533203125,0.038330078125,-0.396484375,-1.558349609375,0.0078125,0.03515625,0.0234375,0.001953125,0.00390625,-0.00390625
2026-09-02T13:16:26.240967,-0.20196533203125,0.038330078125,-0.396484375,-1.558349609375,0.0078125,0.03515625,0.0234375,0.001953125,0.00390625,-0.00390625
2026-09-02T13:16:26.341187,-0.20196533203125,0.038330078125,-0.396484375,-1.558349609375,0.0078125,0.03515625,0.0234375,0.001953125,0.00390625,-0.00390625
2026-09-02T13:16:26.441148,-0.20196533203125,0.038330078125,-0.396484375,-1.558349609375,0.0078125,0.03515625,0.0234375,0.001953125,0.00390625,-0.00390625
2026-09-02T13:16:26.541270,-0.20196533203125,0.038330078125,-0.396484375,-1.558349609375,0.0078125,0.03515625,0.0234375,0.001953125,0.00390625,-0.00390625
2026-09-02T13:16:26.641435,-0.20196533203125,0.038330078125,-0.396484375,-1.558349609375,0.0078125,0.03515625,0.0234375,0.001953125,0.00390625,-0.00390625
2026-09-02T13:16:26.741613,-0.20196533203125,0.038330078125,-0.396484375,-1.558349609375,0.0078125,0.03515625,0.0234375,0.001953125,0.00390625,-0.00390625
2026-09-02T13:16:26.841642,-0.20196533203125,0.038330078125,-0.396484375,-1.558349609375,0.0078125,0.03515625,0.0234375,0.001953125,0.00390625,-0.00390625
2026-09-02T13:16:26.941902,-0.20196533203125,0.038330078125,-0.396484375,-1.558349609375,0.0078125,0.03515625,0.0234375,0.001953125,0.00390625,-0.00390625
2026-09-02T13:16:27.041880,-0.20196533203125,0.038330078125,-0.396484375,-1.558349609375,0.0078125,0.03515625,0.0234375,0.001953125,0.00390625,-0.00390625
2026-09-02T13:16:27.142066,-0.20196533203125,0.038330078125,-0.396484375,-1.558349609375,0.0078125,0.03515625,0.0234375,0.001953125,0.00390625,-0.00390625
2026-09-02T13:16:27.242109,-0.20196533203125,0.038330078125,-0.396484375,-1.558349609375,0.0078125,0.03515625,0.0234375,0.001953125,0.00390625,-0.00390625
2026-09-02T13:16:27.342477,-0.20196533203125,0.038330078125,-0.396484375,-1.558349609375,0.0078125,0.03515625,0.0234375,0.001953125,0.00390625,-0.00390625
2026-09-02T13:16:27.442273,-0.20196533203125,0.038330078125,-0.396484375,-1.558349609375,0.0078125,0.03515625,0.0234375,0.001953125,0.00390625,-0.00390625
2026-09-02T13:16:27.542372,-0.20196533203125,0.038330078125,-0.396484375,-1.558349609375,0.0078125,0.03515625,0.0234375,0.001953125,0.00390625,-0.00390625
2026-09-02T13:16:27.642503,-0.20196533203125,0.038330078125,-0.396484375,-1.558349609375,0.0078125,0.03515625,0.0234375,0.001953125,0.00390625,-0.00390625
2026-09-02T13:16:27.742612,-0.20196533203125,0.038330078125,-0.396484375,-1.558349609375,0.0078125,0.03515625,0.0234375,0.001953125,0.00390625,-0.00390625
2026-09-02T13:16:27.842772,-0.20196533203125,0.038330078125,-0.396484375,-1.558349609375,0.0078125,0.03515625,0.0234375,0.001953125,0.00390625,-0.00390625
2026-09-02T13:16:27.943146,-0.20196533203125,0.038330078125,-0.396484375,-1.558349609375,0.0078125,0.03515625,0.0234375,0.001953125,0.00390625,-0.00390625
2026-09-02T13:16:28.042934,-0.20196533203125,0.038330078125,-0.396484375,-1.558349609375,0.0078125,0.03515625,0.0234375,0.001953125,0.00390625,-0.00390625
2026-09-02T13:16:28.143068,-0.20196533203125,0.038330078125,-0.396484375,-1.558349609375,0.0078125,0.03515625,0.0234375,0.001953125,0.00390625,-0.00390625
2026-09-02T13:16:28.243682,-0.20196533203125,0.038330078125,-0.396484375,-1.558349609375,0.0078125,0.03515625,0.0234375,0.001953125,0.00390625,-0.00390625
2026-09-02T13:16:28.343295,-0.20196533203125,0.038330078125,-0.396484375,-1.558349609375,0.0078125,0.03515625,0.0234375,0.001953125,0.00390625,-0.00390625
2026-09-02T13:16:28.443606,-0.20196533203125,0.038330078125,-0.396484375,-1.558349609375,0.0078125,0.03515625,0.0234375,0.001953125,0.00390625,-0.00390625
2026-09-02T13:16:28.543484,-0.20196533203125,0.038330078125,-0.396484375,-1.558349609375,0.0078125,0.03515625,0.0234375,0.001953125,0.00390625,-0.00390625
2026-09-02T13:16:28.643932,-0.20196533203125,0.038330078125,-0.396484375,-1.558349609375,0.0078125,0.03515625,0.0234375,0.001953125,0.00390625,-0.00390625
2026-09-02T13:16:28.743791,-0.20196533203125,0.038330078125,-0.396484375,-1.558349609375,0.0078125,0.03515625,0.0234375,0.001953125,0.00390625,-0.00390625
2026-09-02T13:16:28.843866,-0.20196533203125,0.038330078125,-0.396484375,-1.558349609375,0.0078125,0.03515625,0.0234375,0.001953125,0.00390625,-0.00390625
2026-09-02T13:16:28.944177,-0.20196533203125,0.038330078125,-0.396484375,-1.558349609375,0.0078125,0.03515625,0.0234375,0.001953125,0.00390625,-0.00390625
2026-09-02T13:16:29.044098,-0.20196533203125,0.038330078125,-0.396484375,-1.558349609375,0.0078125,0.03515625,0.0234375,0.001953125,0.00390625,-0.00390625
2026-09-02T13:16:29.144333,-0.20196533203125,0.038330078125,-0.396484375,-1.558349609375,0.0078125,0.03515625,0.0234375,0.001953125,0.00390625,-0.00390625
2026-09-02T13:16:29.244325,-0.20196533203125,0.038330078125,-0.396484375,-1.558349609375,0.0078125,0.03515625,0.0234375,0.001953125,0.00390625,-0.00390625
2026-09-02T13:16:29.344467,-0.20196533203125,0.038330078125,-0.396484375,-1.558349609375,0.0078125,0.03515625,0.0234375,0.001953125,0.00390625,-0.00390625
2026-09-02T13:16:29.444763,-0.20196533203125,0.038330078125,-0.396484375,-1.558349609375,0.0078125,0.03515625,0.0234375,0.001953125,0.00390625,-0.00390625
2026-09-02T13:16:29.544692,-0.20196533203125,0.038330078125,-0.396484375,-1.558349609375,0.0078125,0.03515625,0.0234375,0.001953125,0.00390625,-0.00390625
2026-09-02T13:16:29.644945,-0.20196533203125,0.038330078125,-0.396484375,-1.558349609375,0.0078125,0.03515625,0.0234375,0.001953125,0.00390625,-0.00390625
2026-09-02T13:16:29.744979,-0.20196533203125,0.038330078125,-0.396484375,-1.558349609375,0.0078125,0.03515625,0.0234375,0.001953125,0.00390625,-0.00390625
2026-09-02T13:16:29.845068,-0.20196533203125,0.038330078125,-0.396484375,-1.558349609375,0.0078125,0.03515625,0.0234375,0.001953125,0.00390625,-0.00390625
2026-09-02T13:16:29.945379,-0.20196533203125,0.038330078125,-0.396484375,-1.558349609375,0.0078125,0.03515625,0.0234375,0.001953125,0.00390625,-0.00390625
2026-09-02T13:16:30.045235,-0.20196533203125,0.038330078125,-0.396484375,-1.558349609375,0.0078125,0.03515625,0.0234375,0.001953125,0.00390625,-0.00390625
2026-09-02T13:16:30.145612,-0.20196533203125,0.038330078125,-0.396484375,-1.558349609375,0.0078125,0.03515625,0.0234375,0.001953125,0.00390625,-0.00390625
2026-09-02T13:16:30.245466,-0.20196533203125,0.038330078125,-0.396484375,-1.558349609375,0.0078125,0.03515625,0.0234375,0.001953125,0.00390625,-0.00390625
2026-09-02T13:16:30.345602,-0.20196533203125,0.038330078125,-0.396484375,-1.558349609375,0.0078125,0.03515625,0.0234375,0.001953125,0.00390625,-0.00390625
2026-09-02T13:16:30.445772,-0.20196533203125,0.038330078125,-0.396484375,-1.558349609375,0.0078125,0.03515625,0.0234375,0.001953125,0.00390625,-0.00390625
2026-09-02T13:16:30.545841,-0.20196533203125,0.038330078125,-0.396484375,-1.558349609375,0.0078125,0.03515625,0.0234375,0.001953125,0.00390625,-0.00390625
2026-09-02T13:16:30.645931,-0.20196533203125,0.038330078125,-0.396484375,-1.558349609375,0.0078125,0.03515625,0.0234375,0.001953125,0.00390625,-0.00390625
2026-09-02T13:16:30.746149,-0.20196533203125,0.038330078125,-0.396484375,-1.558349609375,0.0078125,0.03515625,0.0234375,0.001953125,0.00390625,-0.00390625
2026-09-02T13:16:30.846193,-0.20196533203125,0.038330078125,-0.396484375,-1.558349609375,0.0078125,0.03515625,0.0234375,0.001953125,0.00390625,-0.00390625
2026-09-02T13:16:30.946251,-0.20196533203125,0.038330078125,-0.396484375,-1.558349609375,0.0078125,0.03515625,0.0234375,0.001953125,0.00390625,-0.00390625
2026-09-02T13:16:31.046389,-0.20196533203125,0.038330078125,-0.396484375,-1.558349609375,0.0078125,0.03515625,0.0234375,0.001953125,0.00390625,-0.00390625
2026-09-02T13:16:31.146557,-0.20196533203125,0.038330078125,-0.396484375,-1.558349609375,0.0078125,0.03515625,0.0234375,0.001953125,0.00390625,-0.00390625
2026-09-02T13:16:31.246571,-0.20196533203125,0.038330078125,-0.396484375,-1.558349609375,0.0078125,0.03515625,0.0234375,0.001953125,0.00390625,-0.00390625
2026-09-02T13:16:31.346942,-0.20196533203125,0.038330078125,-0.396484375,-1.558349609375,0.0078125,0.03515625,0.0234375,0.001953125,0.00390625,-0.00390625
2026-09-02T13:16:31.446853,-0.20196533203125,0.038330078125,-0.396484375,-1.558349609375,0.0078125,0.03515625,0.0234375,0.001953125,0.00390625,-0.00390625
2026-09-02T13:16:31.547126,-0.20196533203125,0.038330078125,-0.396484375,-1.558349609375,0.0078125,0.03515625,0.0234375,0.001953125,0.00390625,-0.00390625
2026-09-02T13:16:31.647080,-0.20196533203125,0.038330078125,-0.396484375,-1.558349609375,0.0078125,0.03515625,0.0234375,0.001953125,0.00390625,-0.00390625
2026-09-02T13:16:31.747338,-0.20196533203125,0.038330078125,-0.396484375,-1.558349609375,0.0078125,0.03515625,0.0234375,0.001953125,0.00390625,-0.00390625
2026-09-02T13:16:31.847424,-0.20196533203125,0.038330078125,-0.396484375,-1.558349609375,0.0078125,0.03515625,0.0234375,0.001953125,0.00390625,-0.00390625
2026-09-02T13:16:31.947446,-0.20196533203125,0.038330078125,-0.396484375,-1.558349609375,0.0078125,0.03515625,0.0234375,0.001953125,0.00390625,-0.00390625
2026-09-02T13:16:32.047770,-0.20196533203125,0.038330078125,-0.396484375,-1.558349609375,0.0078125,0.03515625,0.0234375,0.001953125,0.00390625,-0.00390625
2026-09-02T13:16:32.147594,-0.20196533203125,0.038330078125,-0.396484375,-1.558349609375,0.0078125,0.03515625,0.0234375,0.001953125,0.00390625,-0.00390625
2026-09-02T13:16:32.247690,-0.20196533203125,0.038330078125,-0.396484375,-1.558349609375,0.0078125,0.03515625,0.0234375,0.001953125,0.00390625,-0.00390625
2026-09-02T13:16:32.347936,-0.20196533203125,0.038330078125,-0.396484375,-1.558349609375,0.0078125,0.03515625,0.0234375,0.001953125,0.00390625,-0.00390625
2026-09-02T13:16:32.447919,-0.20196533203125,0.038330078125,-0.396484375,-1.558349609375,0.0078125,0.03515625,0.0234375,0.001953125,0.00390625,-0.00390625
2026-09-02T13:16:32.548046,-0.20196533203125,0.038330078125,-0.396484375,-1.558349609375,0.0078125,0.03515625,0.0234375,0.001953125,0.00390625,-0.00390625
2026-09-02T13:16:32.648283,-0.20196533203125,0.038330078125,-0.396484375,-1.558349609375,0.0078125,0.03515625,0.0234375,0.001953125,0.00390625,-0.00390625
2026-09-02T13:16:32.748358,-0.20196533203125,0.038330078125,-0.396484375,-1.558349609375,0.0078125,0.03515625,0.0234375,0.001953125,0.00390625,-0.00390625
2026-09-02T13:16:32.848493,-0.20196533203125,0.038330078125,-0.396484375,-1.558349609375,0.0078125,0.03515625,0.0234375,0.001953125,0.00390625,-0.00390625
2026-09-02T13:16:32.948494,-0.20196533203125,0.038330078125,-0.396484375,-1.558349609375,0.0078125,0.03515625,0.0234375,0.001953125,0.00390625,-0.00390625
2026-09-02T13:16:33.048636,-0.20196533203125,0.038330078125,-0.396484375,-1.558349609375,0.0078125,0.03515625,0.0234375,0.001953125,0.00390625,-0.00390625
2026-09-02T13:16:33.148992,-0.20196533203125,0.038330078125,-0.396484375,-1.558349609375,0.0078125,0.03515625,0.0234375,0.001953125,0.00390625,-0.00390625
2026-09-02T13:16:33.248830,-0.20196533203125,0.038330078125,-0.396484375,-1.558349609375,0.0078125,0.03515625,0.0234375,0.001953125,0.00390625,-0.00390625
2026-09-02T13:16:33.349172,-0.20196533203125,0.038330078125,-0.396484375,-1.558349609375,0.0078125,0.03515625,0.0234375,0.001953125,0.00390625,-0.00390625
2026-09-02T13:16:33.449131,-0.20196533203125,0.038330078125,-0.396484375,-1.558349609375,0.0078125,0.03515625,0.0234375,0.001953125,0.00390625,-0.00390625
2026-09-02T13:16:33.549311,-0.20196533203125,0.038330078125,-0.396484375,-1.558349609375,0.0078125,0.03515625,0.0234375,0.001953125,0.00390625,-0.00390625
2026-09-02T13:16:33.649432,-0.20196533203125,0.038330078125,-0.396484375,-1.558349609375,0.0078125,0.03515625,0.0234375,0.001953125,0.00390625,-0.00390625
2026-09-02T13:16:33.749476,-0.20196533203125,0.038330078125,-0.396484375,-1.558349609375,0.0078125,0.03515625,0.0234375,0.001953125,0.00390625,-0.00390625
2026-09-02T13:16:33.849602,-0.20196533203125,0.038330078125,-0.396484375,-1.558349609375,0.0078125,0.03515625,0.0234375,0.001953125,0.00390625,-0.00390625
2026-09-02T13:16:33.949880,-0.20196533203125,0.038330078125,-0.396484375,-1.558349609375,0.0078125,0.03515625,0.0234375,0.001953125,0.00390625,-0.00390625
2026-09-02T13:16:34.049793,-0.20196533203125,0.038330078125,-0.396484375,-1.558349609375,0.0078125,0.03515625,0.0234375,0.001953125,0.00390625,-0.00390625
2026-09-02T13:16:34.149987,-0.20196533203125,0.038330078125,-0.396484375,-1.558349609375,0.0078125,0.03515625,0.0234375,0.001953125,0.00390625,-0.00390625
2026-09-02T13:16:34.250270,-0.20196533203125,0.038330078125,-0.396484375,-1.558349609375,0.0078125,0.03515625,0.0234375,0.001953125,0.00390625,-0.00390625
2026-09-02T13:16:34.350114,-0.20196533203125,0.038330078125,-0.396484375,-1.558349609375,0.0078125,0.03515625,0.0234375,0.001953125,0.00390625,-0.00390625
2026-09-02T13:16:34.450258,-0.20196533203125,0.038330078125,-0.396484375,-1.558349609375,0.0078125,0.03515625,0.0234375,0.001953125,0.00390625,-0.00390625
2026-09-02T13:16:34.552925,-0.20196533203125,0.038330078125,-0.396484375,-1.558349609375,0.0078125,0.03515625,0.0234375,0.001953125,0.00390625,-0.00390625
2026-09-02T13:16:34.652439,-0.20196533203125,0.038330078125,-0.396484375,-1.558349609375,0.0078125,0.03515625,0.0234375,0.001953125,0.00390625,-0.00390625
2026-09-02T13:16:34.752602,-0.20196533203125,0.038330078125,-0.396484375,-1.558349609375,0.0078125,0.03515625,0.0234375,0.001953125,0.00390625,-0.00390625
2026-09-02T13:16:34.852632,-0.20196533203125,0.038330078125,-0.396484375,-1.558349609375,0.0078125,0.03515625,0.0234375,0.001953125,0.00390625,-0.00390625
2026-09-02T13:16:34.952794,-0.20196533203125,0.038330078125,-0.396484375,-1.558349609375,0.0078125,0.03515625,0.0234375,0.001953125,0.00390625,-0.00390625
2026-09-02T13:16:35.052881,-0.20196533203125,0.038330078125,-0.396484375,-1.558349609375,0.0078125,0.03515625,0.0234375,0.001953125,0.00390625,-0.00390625
2026-09-02T13:16:35.152988,-0.20196533203125,0.038330078125,-0.396484375,-1.558349609375,0.0078125,0.03515625,0.0234375,0.001953125,0.00390625,-0.00390625
2026-09-02T13:16:35.253034,-0.20196533203125,0.038330078125,-0.396484375,-1.558349609375,0.0078125,0.03515625,0.0234375,0.001953125,0.00390625,-0.00390625
2026-09-02T13:16:35.353270,-0.20196533203125,0.038330078125,-0.396484375,-1.558349609375,0.0078125,0.03515625,0.0234375,0.001953125,0.00390625,-0.00390625
2026-09-02T13:16:35.453265,-0.20196533203125,0.038330078125,-0.396484375,-1.558349609375,0.0078125,0.03515625,0.0234375,0.001953125,0.00390625,-0.00390625
2026-09-02T13:16:35.553502,-0.20196533203125,0.038330078125,-0.396484375,-1.558349609375,0.0078125,0.03515625,0.0234375,0.001953125,0.00390625,-0.00390625
2026-09-02T13:16:35.653437,-0.20196533203125,0.038330078125,-0.396484375,-1.558349609375,0.0078125,0.03515625,0.0234375,0.001953125,0.00390625,-0.00390625
2026-09-02T13:16:35.753653,-0.20196533203125,0.038330078125,-0.396484375,-1.558349609375,0.0078125,0.03515625,0.0234375,0.001953125,0.00390625,-0.00390625
2026-09-02T13:16:35.853651,-0.20196533203125,0.038330078125,-0.396484375,-1.558349609375,0.0078125,0.03515625,0.0234375,0.001953125,0.00390625,-0.00390625
2026-09-02T13:16:35.953799,-0.20196533203125,0.038330078125,-0.396484375,-1.558349609375,0.0078125,0.03515625,0.0234375,0.001953125,0.00390625,-0.00390625
2026-09-02T13:16:36.053824,-0.20196533203125,0.038330078125,-0.396484375,-1.558349609375,0.0078125,0.03515625,0.0234375,0.001953125,0.00390625,-0.00390625
2026-09-02T13:16:36.154181,-0.20196533203125,0.038330078125,-0.396484375,-1.558349609375,0.0078125,0.03515625,0.0234375,0.001953125,0.00390625,-0.00390625
2026-09-02T13:16:36.254055,-0.20196533203125,0.038330078125,-0.396484375,-1.558349609375,0.0078125,0.03515625,0.0234375,0.001953125,0.00390625,-0.00390625
2026-09-02T13:16:36.354223,-0.20196533203125,0.038330078125,-0.396484375,-1.558349609375,0.0078125,0.03515625,0.0234375,0.001953125,0.00390625,-0.00390625
2026-09-02T13:16:36.454216,-0.20196533203125,0.038330078125,-0.396484375,-1.558349609375,0.0078125,0.03515625,0.0234375,0.001953125,0.00390625,-0.00390625
2026-09-02T13:16:36.554445,-0.20196533203125,0.038330078125,-0.396484375,-1.558349609375,0.0078125,0.03515625,0.0234375,0.001953125,0.00390625,-0.00390625
2026-09-02T13:16:36.654422,-0.20196533203125,0.038330078125,-0.396484375,-1.558349609375,0.0078125,0.03515625,0.0234375,0.001953125,0.00390625,-0.00390625
2026-09-02T13:16:36.754517,-0.20196533203125,0.038330078125,-0.396484375,-1.558349609375,0.0078125,0.03515625,0.0234375,0.001953125,0.00390625,-0.00390625
2026-09-02T13:16:36.854661,-0.20196533203125,0.038330078125,-0.396484375,-1.558349609375,0.0078125,0.03515625,0.0234375,0.001953125,0.00390625,-0.00390625
2026-09-02T13:16:36.954795,-0.20196533203125,0.038330078125,-0.396484375,-1.558349609375,0.0078125,0.03515625,0.0234375,0.001953125,0.00390625,-0.00390625
2026-09-02T13:16:37.054887,-0.20196533203125,0.038330078125,-0.396484375,-1.558349609375,0.0078125,0.03515625,0.0234375,0.001953125,0.00390625,-0.00390625
2026-09-02T13:16:37.154951,-0.20196533203125,0.038330078125,-0.396484375,-1.558349609375,0.0078125,0.03515625,0.0234375,0.001953125,0.00390625,-0.00390625
2026-09-02T13:16:37.255187,-0.20196533203125,0.038330078125,-0.396484375,-1.558349609375,0.0078125,0.03515625,0.0234375,0.001953125,0.00390625,-0.00390625
2026-09-02T13:16:37.355124,-0.20196533203125,0.038330078125,-0.396484375,-1.558349609375,0.0078125,0.03515625,0.0234375,0.001953125,0.00390625,-0.00390625
2026-09-02T13:16:37.455229,-0.20196533203125,0.038330078125,-0.396484375,-1.558349609375,0.0078125,0.03515625,0.0234375,0.001953125,0.00390625,-0.00390625
2026-09-02T13:16:37.555327,-0.20196533203125,0.038330078125,-0.396484375,-1.558349609375,0.0078125,0.03515625,0.0234375,0.001953125,0.00390625,-0.00390625
2026-09-02T13:16:37.655415,-0.20196533203125,0.038330078125,-0.396484375,-1.558349609375,0.0078125,0.03515625,0.0234375,0.001953125,0.00390625,-0.00390625
2026-09-02T13:16:37.755570,-0.20196533203125,0.038330078125,-0.396484375,-1.558349609375,0.0078125,0.03515625,0.0234375,0.001953125,0.00390625,-0.00390625
2026-09-02T13:16:37.855671,-0.20196533203125,0.038330078125,-0.396484375,-1.558349609375,0.0078125,0.03515625,0.0234375,0.001953125,0.00390625,-0.00390625
2026-09-02T13:16:37.956194,-0.20196533203125,0.038330078125,-0.396484375,-1.558349609375,0.0078125,0.03515625,0.0234375,0.001953125,0.00390625,-0.00390625
2026-09-02T13:16:38.055865,-0.20196533203125,0.038330078125,-0.396484375,-1.558349609375,0.0078125,0.03515625,0.0234375,0.001953125,0.00390625,-0.00390625
2026-09-02T13:16:38.156052,-0.20196533203125,0.038330078125,-0.396484375,-1.558349609375,0.0078125,0.03515625,0.0234375,0.001953125,0.00390625,-0.00390625
2026-09-02T13:16:38.256061,-0.20196533203125,0.038330078125,-0.396484375,-1.558349609375,0.0078125,0.03515625,0.0234375,0.001953125,0.00390625,-0.00390625
2026-09-02T13:16:38.356247,-0.20196533203125,0.038330078125,-0.396484375,-1.558349609375,0.0078125,0.03515625,0.0234375,0.001953125,0.00390625,-0.00390625
2026-09-02T13:16:38.456310,-0.20196533203125,0.038330078125,-0.396484375,-1.558349609375,0.0078125,0.03515625,0.0234375,0.001953125,0.00390625,-0.00390625
2026-09-02T13:16:38.556418,-0.20196533203125,0.038330078125,-0.396484375,-1.558349609375,0.0078125,0.03515625,0.0234375,0.001953125,0.00390625,-0.00390625
2026-09-02T13:16:38.656605,-0.20196533203125,0.038330078125,-0.396484375,-1.558349609375,0.0078125,0.03515625,0.0234375,0.001953125,0.00390625,-0.00390625
2026-09-02T13:16:38.756596,-0.20196533203125,0.038330078125,-0.396484375,-1.558349609375,0.0078125,0.03515625,0.0234375,0.001953125,0.00390625,-0.00390625
2026-09-02T13:16:38.856691,-0.20196533203125,0.038330078125,-0.396484375,-1.558349609375,0.0078125,0.03515625,0.0234375,0.001953125,0.00390625,-0.00390625
2026-09-02T13:16:38.957004,-0.20196533203125,0.038330078125,-0.396484375,-1.558349609375,0.0078125,0.03515625,0.0234375,0.001953125,0.00390625,-0.00390625
2026-09-02T13:16:39.057118,-0.20196533203125,0.038330078125,-0.396484375,-1.558349609375,0.0078125,0.03515625,0.0234375,0.001953125,0.00390625,-0.00390625
2026-09-02T13:16:39.157048,-0.20196533203125,0.038330078125,-0.396484375,-1.558349609375,0.0078125,0.03515625,0.0234375,0.001953125,0.00390625,-0.00390625
2026-09-02T13:16:39.257105,-0.20196533203125,0.038330078125,-0.396484375,-1.558349609375,0.0078125,0.03515625,0.0234375,0.001953125,0.00390625,-0.00390625
2026-09-02T13:16:39.357311,-0.20196533203125,0.038330078125,-0.396484375,-1.558349609375,0.0078125,0.03515625,0.0234375,0.001953125,0.00390625,-0.00390625
2026-09-02T13:16:39.457277,-0.20196533203125,0.038330078125,-0.396484375,-1.558349609375,0.0078125,0.03515625,0.0234375,0.001953125,0.00390625,-0.00390625
2026-09-02T13:16:39.557449,-0.20196533203125,0.038330078125,-0.396484375,-1.558349609375,0.0078125,0.03515625,0.0234375,0.001953125,0.00390625,-0.00390625
2026-09-02T13:16:39.657581,-0.20196533203125,0.038330078125,-0.396484375,-1.558349609375,0.0078125,0.03515625,0.0234375,0.001953125,0.00390625,-0.00390625
2026-09-02T13:16:39.757883,-0.20196533203125,0.038330078125,-0.396484375,-1.558349609375,0.0078125,0.03515625,0.0234375,0.001953125,0.00390625,-0.00390625
2026-09-02T13:16:39.857813,-0.20196533203125,0.038330078125,-0.396484375,-1.558349609375,0.0078125,0.03515625,0.0234375,0.001953125,0.00390625,-0.00390625
2026-09-02T13:16:39.958690,-0.20196533203125,0.038330078125,-0.396484375,-1.558349609375,0.0078125,0.03515625,0.0234375,0.001953125,0.00390625,-0.00390625
2026-09-02T13:16:40.058060,-0.20196533203125,0.038330078125,-0.396484375,-1.558349609375,0.0078125,0.03515625,0.0234375,0.001953125,0.00390625,-0.00390625
2026-09-02T13:16:40.158182,-0.20196533203125,0.038330078125,-0.396484375,-1.558349609375,0.0078125,0.03515625,0.0234375,0.001953125,0.00390625,-0.00390625
2026-09-02T13:16:40.258377,-0.20196533203125,0.038330078125,-0.396484375,-1.558349609375,0.0078125,0.03515625,0.0234375,0.001953125,0.00390625,-0.00390625
2026-09-02T13:16:40.358445,-0.20196533203125,0.038330078125,-0.396484375,-1.558349609375,0.0078125,0.03515625,0.0234375,0.001953125,0.00390625,-0.00390625
2026-09-02T13:16:40.458652,-0.20196533203125,0.038330078125,-0.396484375,-1.558349609375,0.0078125,0.03515625,0.0234375,0.001953125,0.00390625,-0.00390625
2026-09-02T13:16:40.558609,-0.20196533203125,0.038330078125,-0.396484375,-1.558349609375,0.0078125,0.03515625,0.0234375,0.001953125,0.00390625,-0.00390625
2026-09-02T13:16:40.658732,-0.20196533203125,0.038330078125,-0.396484375,-1.558349609375,0.0078125,0.03515625,0.0234375,0.001953125,0.00390625,-0.00390625
2026-09-02T13:16:40.759040,-0.20196533203125,0.038330078125,-0.396484375,-1.558349609375,0.0078125,0.03515625,0.0234375,0.001953125,0.00390625,-0.00390625
2026-09-02T13:16:40.858982,-0.20196533203125,0.038330078125,-0.396484375,-1.558349609375,0.0078125,0.03515625,0.0234375,0.001953125,0.00390625,-0.00390625
2026-09-02T13:16:40.959887,-0.20196533203125,0.038330078125,-0.396484375,-1.558349609375,0.0078125,0.03515625,0.0234375,0.001953125,0.00390625,-0.00390625
2026-09-02T13:16:41.059226,-0.20196533203125,0.038330078125,-0.396484375,-1.558349609375,0.0078125,0.03515625,0.0234375,0.001953125,0.00390625,-0.00390625
2026-09-02T13:16:41.159339,-0.20196533203125,0.038330078125,-0.396484375,-1.558349609375,0.0078125,0.03515625,0.0234375,0.001953125,0.00390625,-0.00390625
2026-09-02T13:16:41.259791,-0.20196533203125,0.038330078125,-0.396484375,-1.558349609375,0.0078125,0.03515625,0.0234375,0.001953125,0.00390625,-0.00390625
2026-09-02T13:16:41.359605,-0.20196533203125,0.038330078125,-0.396484375,-1.558349609375,0.0078125,0.03515625,0.0234375,0.001953125,0.00390625,-0.00390625
2026-09-02T13:16:41.459769,-0.20196533203125,0.038330078125,-0.396484375,-1.558349609375,0.0078125,0.03515625,0.0234375,0.001953125,0.00390625,-0.00390625
2026-09-02T13:16:41.559870,-0.20196533203125,0.038330078125,-0.396484375,-1.558349609375,0.0078125,0.03515625,0.0234375,0.001953125,0.00390625,-0.00390625
2026-09-02T13:16:41.660217,-0.20196533203125,0.038330078125,-0.396484375,-1.558349609375,0.0078125,0.03515625,0.0234375,0.001953125,0.00390625,-0.00390625
2026-09-02T13:16:41.760040,-0.20196533203125,0.038330078125,-0.396484375,-1.558349609375,0.0078125,0.03515625,0.0234375,0.001953125,0.00390625,-0.00390625
2026-09-02T13:16:41.860264,-0.20196533203125,0.038330078125,-0.396484375,-1.558349609375,0.0078125,0.03515625,0.0234375,0.001953125,0.00390625,-0.00390625
2026-09-02T13:16:41.960692,-0.20196533203125,0.038330078125,-0.396484375,-1.558349609375,0.0078125,0.03515625,0.0234375,0.001953125,0.00390625,-0.00390625
2026-09-02T13:16:42.060484,-0.20196533203125,0.038330078125,-0.396484375,-1.558349609375,0.0078125,0.03515625,0.0234375,0.001953125,0.00390625,-0.00390625
2026-09-02T13:16:42.160755,-0.20196533203125,0.038330078125,-0.396484375,-1.558349609375,0.0078125,0.03515625,0.0234375,0.001953125,0.00390625,-0.00390625
2026-09-02T13:16:42.260714,-0.20196533203125,0.038330078125,-0.396484375,-1.558349609375,0.0078125,0.03515625,0.0234375,0.001953125,0.00390625,-0.00390625
2026-09-02T13:16:42.360838,-0.20196533203125,0.038330078125,-0.396484375,-1.558349609375,0.0078125,0.03515625,0.0234375,0.001953125,0.00390625,-0.00390625
2026-09-02T13:16:42.461138,-0.20196533203125,0.038330078125,-0.396484375,-1.558349609375,0.0078125,0.03515625,0.0234375,0.001953125,0.00390625,-0.00390625
2026-09-02T13:16:42.561088,-0.20196533203125,0.038330078125,-0.396484375,-1.558349609375,0.0078125,0.03515625,0.0234375,0.001953125,0.00390625,-0.00390625
2026-09-02T13:16:42.661321,-0.20196533203125,0.038330078125,-0.396484375,-1.558349609375,0.0078125,0.03515625,0.0234375,0.001953125,0.00390625,-0.00390625
2026-09-02T13:16:42.761272,-0.20196533203125,0.038330078125,-0.396484375,-1.558349609375,0.0078125,0.03515625,0.0234375,0.001953125,0.00390625,-0.00390625
2026-09-02T13:16:42.861370,-0.20196533203125,0.038330078125,-0.396484375,-1.558349609375,0.0078125,0.03515625,0.0234375,0.001953125,0.00390625,-0.00390625
2026-09-02T13:16:42.962390,-0.20196533203125,0.038330078125,-0.396484375,-1.558349609375,0.0078125,0.03515625,0.0234375,0.001953125,0.00390625,-0.00390625
2026-09-02T13:16:43.061614,-0.20196533203125,0.038330078125,-0.396484375,-1.558349609375,0.0078125,0.03515625,0.0234375,0.001953125,0.00390625,-0.00390625
2026-09-02T13:16:43.161761,-0.20196533203125,0.038330078125,-0.396484375,-1.558349609375,0.0078125,0.03515625,0.0234375,0.001953125,0.00390625,-0.00390625
2026-09-02T13:16:43.261860,-0.20196533203125,0.038330078125,-0.396484375,-1.558349609375,0.0078125,0.03515625,0.0234375,0.001953125,0.00390625,-0.00390625
2026-09-02T13:16:43.362256,-0.20196533203125,0.038330078125,-0.396484375,-1.558349609375,0.0078125,0.03515625,0.0234375,0.001953125,0.00390625,-0.00390625
2026-09-02T13:16:43.462096,-0.20196533203125,0.038330078125,-0.396484375,-1.558349609375,0.0078125,0.03515625,0.0234375,0.001953125,0.00390625,-0.00390625
2026-09-02T13:16:43.562308,-0.20196533203125,0.038330078125,-0.396484375,-1.558349609375,0.0078125,0.03515625,0.0234375,0.001953125,0.00390625,-0.00390625
2026-09-02T13:16:43.662293,-0.20196533203125,0.038330078125,-0.396484375,-1.558349609375,0.0078125,0.03515625,0.0234375,0.001953125,0.00390625,-0.00390625
2026-09-02T13:16:43.762389,-0.20196533203125,0.038330078125,-0.396484375,-1.558349609375,0.0078125,0.03515625,0.0234375,0.001953125,0.00390625,-0.00390625
2026-09-02T13:16:43.862549,-0.20196533203125,0.038330078125,-0.396484375,-1.558349609375,0.0078125,0.03515625,0.0234375,0.001953125,0.00390625,-0.00390625
2026-09-02T13:16:43.962474,-0.20196533203125,0.038330078125,-0.396484375,-1.558349609375,0.0078125,0.03515625,0.0234375,0.001953125,0.00390625,-0.00390625
2026-09-02T13:16:44.062789,-0.20196533203125,0.038330078125,-0.396484375,-1.558349609375,0.0078125,0.03515625,0.0234375,0.001953125,0.00390625,-0.00390625
2026-09-02T13:16:44.162990,-0.20196533203125,0.038330078125,-0.396484375,-1.558349609375,0.0078125,0.03515625,0.0234375,0.001953125,0.00390625,-0.00390625
2026-09-02T13:16:44.263071,-0.20196533203125,0.038330078125,-0.396484375,-1.558349609375,0.0078125,0.03515625,0.0234375,0.001953125,0.00390625,-0.00390625
2026-09-02T13:16:44.363198,-0.20196533203125,0.038330078125,-0.396484375,-1.558349609375,0.0078125,0.03515625,0.0234375,0.001953125,0.00390625,-0.00390625
2026-09-02T13:16:44.463368,-0.20196533203125,0.038330078125,-0.396484375,-1.558349609375,0.0078125,0.03515625,0.0234375,0.001953125,0.00390625,-0.00390625
2026-09-02T13:16:44.563322,-0.20196533203125,0.038330078125,-0.396484375,-1.558349609375,0.0078125,0.03515625,0.0234375,0.001953125,0.00390625,-0.00390625
2026-09-02T13:16:44.663445,-0.20196533203125,0.038330078125,-0.396484375,-1.558349609375,0.0078125,0.03515625,0.0234375,0.001953125,0.00390625,-0.00390625
2026-09-02T13:16:44.763708,-0.20196533203125,0.038330078125,-0.396484375,-1.558349609375,0.0078125,0.03515625,0.0234375,0.001953125,0.00390625,-0.00390625
2026-09-02T13:16:44.863706,-0.20196533203125,0.038330078125,-0.396484375,-1.558349609375,0.0078125,0.03515625,0.0234375,0.001953125,0.00390625,-0.00390625
2026-09-02T13:16:44.963796,-0.20196533203125,0.038330078125,-0.396484375,-1.558349609375,0.0078125,0.03515625,0.0234375,0.001953125,0.00390625,-0.00390625
2026-09-02T13:16:45.063901,-0.20196533203125,0.038330078125,-0.396484375,-1.558349609375,0.0078125,0.03515625,0.0234375,0.001953125,0.00390625,-0.00390625
2026-09-02T13:16:45.164058,-0.20196533203125,0.038330078125,-0.396484375,-1.558349609375,0.0078125,0.03515625,0.0234375,0.001953125,0.00390625,-0.00390625
2026-09-02T13:16:45.264162,-0.20196533203125,0.038330078125,-0.396484375,-1.558349609375,0.0078125,0.03515625,0.0234375,0.001953125,0.00390625,-0.00390625
2026-09-02T13:16:45.364333,-0.20196533203125,0.038330078125,-0.396484375,-1.558349609375,0.0078125,0.03515625,0.0234375,0.001953125,0.00390625,-0.00390625
2026-09-02T13:16:45.464475,-0.20196533203125,0.038330078125,-0.396484375,-1.558349609375,0.0078125,0.03515625,0.0234375,0.001953125,0.00390625,-0.00390625
2026-09-02T13:16:45.564460,-0.20196533203125,0.038330078125,-0.396484375,-1.558349609375,0.0078125,0.03515625,0.0234375,0.001953125,0.00390625,-0.00390625
2026-09-02T13:16:45.664607,-0.20196533203125,0.038330078125,-0.396484375,-1.558349609375,0.0078125,0.03515625,0.0234375,0.001953125,0.00390625,-0.00390625
2026-09-02T13:16:45.764830,-0.20196533203125,0.038330078125,-0.396484375,-1.558349609375,0.0078125,0.03515625,0.0234375,0.001953125,0.00390625,-0.00390625
2026-09-02T13:16:45.864802,-0.20196533203125,0.038330078125,-0.396484375,-1.558349609375,0.0078125,0.03515625,0.0234375,0.001953125,0.00390625,-0.00390625
2026-09-02T13:16:45.964951,-0.20196533203125,0.038330078125,-0.396484375,-1.558349609375,0.0078125,0.03515625,0.0234375,0.001953125,0.00390625,-0.00390625
2026-09-02T13:16:46.065200,-0.20196533203125,0.038330078125,-0.396484375,-1.558349609375,0.0078125,0.03515625,0.0234375,0.001953125,0.00390625,-0.00390625
2026-09-02T13:16:46.165125,-0.20196533203125,0.038330078125,-0.396484375,-1.558349609375,0.0078125,0.03515625,0.0234375,0.001953125,0.00390625,-0.00390625
2026-09-02T13:16:46.265438,-0.20196533203125,0.038330078125,-0.396484375,-1.558349609375,0.0078125,0.03515625,0.0234375,0.001953125,0.00390625,-0.00390625
2026-09-02T13:16:46.365342,-0.20196533203125,0.038330078125,-0.396484375,-1.558349609375,0.0078125,0.03515625,0.0234375,0.001953125,0.00390625,-0.00390625
2026-09-02T13:16:46.465480,-0.20196533203125,0.038330078125,-0.396484375,-1.558349609375,0.0078125,0.03515625,0.0234375,0.001953125,0.00390625,-0.00390625
2026-09-02T13:16:46.565702,-0.20196533203125,0.038330078125,-0.396484375,-1.558349609375,0.0078125,0.03515625,0.0234375,0.001953125,0.00390625,-0.00390625
2026-09-02T13:16:46.665704,-0.20196533203125,0.038330078125,-0.396484375,-1.558349609375,0.0078125,0.03515625,0.0234375,0.001953125,0.00390625,-0.00390625
2026-09-02T13:16:46.765812,-0.20196533203125,0.038330078125,-0.396484375,-1.558349609375,0.0078125,0.03515625,0.0234375,0.001953125,0.00390625,-0.00390625
2026-09-02T13:16:46.865959,-0.20196533203125,0.038330078125,-0.396484375,-1.558349609375,0.0078125,0.03515625,0.0234375,0.001953125,0.00390625,-0.00390625
2026-09-02T13:16:46.966171,-0.20196533203125,0.038330078125,-0.396484375,-1.558349609375,0.0078125,0.03515625,0.0234375,0.001953125,0.00390625,-0.00390625
2026-09-02T13:16:47.066127,-0.20196533203125,0.038330078125,-0.396484375,-1.558349609375,0.0078125,0.03515625,0.0234375,0.001953125,0.00390625,-0.00390625
2026-09-02T13:16:47.166511,-0.20196533203125,0.038330078125,-0.396484375,-1.558349609375,0.0078125,0.03515625,0.0234375,0.001953125,0.00390625,-0.00390625
2026-09-02T13:16:47.266382,-0.20196533203125,0.038330078125,-0.396484375,-1.558349609375,0.0078125,0.03515625,0.0234375,0.001953125,0.00390625,-0.00390625
2026-09-02T13:16:47.366747,-0.20196533203125,0.038330078125,-0.396484375,-1.558349609375,0.0078125,0.03515625,0.0234375,0.001953125,0.00390625,-0.00390625
2026-09-02T13:16:47.466561,-0.20196533203125,0.038330078125,-0.396484375,-1.558349609375,0.0078125,0.03515625,0.0234375,0.001953125,0.00390625,-0.00390625
2026-09-02T13:16:47.566852,-0.20196533203125,0.038330078125,-0.396484375,-1.558349609375,0.0078125,0.03515625,0.0234375,0.001953125,0.00390625,-0.00390625
2026-09-02T13:16:47.666688,-0.20196533203125,0.038330078125,-0.396484375,-1.558349609375,0.0078125,0.03515625,0.0234375,0.001953125,0.00390625,-0.00390625
2026-09-02T13:16:47.767001,-0.20196533203125,0.038330078125,-0.396484375,-1.558349609375,0.0078125,0.03515625,0.0234375,0.001953125,0.00390625,-0.00390625
2026-09-02T13:16:47.867209,-0.20196533203125,0.038330078125,-0.396484375,-1.558349609375,0.0078125,0.03515625,0.0234375,0.001953125,0.00390625,-0.00390625
2026-09-02T13:16:47.967211,-0.20196533203125,0.038330078125,-0.396484375,-1.558349609375,0.0078125,0.03515625,0.0234375,0.001953125,0.00390625,-0.00390625
2026-09-02T13:16:48.067368,-0.20196533203125,0.038330078125,-0.396484375,-1.558349609375,0.0078125,0.03515625,0.0234375,0.001953125,0.00390625,-0.00390625
2026-09-02T13:16:48.166953,-0.20196533203125,0.038330078125,-0.396484375,-1.558349609375,0.0078125,0.03515625,0.0234375,0.001953125,0.00390625,-0.00390625
2026-09-02T13:16:48.267826,-0.20196533203125,0.038330078125,-0.396484375,-1.558349609375,0.0078125,0.03515625,0.0234375,0.001953125,0.00390625,-0.00390625
2026-09-02T13:16:48.367618,-0.20196533203125,0.038330078125,-0.396484375,-1.558349609375,0.0078125,0.03515625,0.0234375,0.001953125,0.00390625,-0.00390625
2026-09-02T13:16:48.467987,-0.20196533203125,0.038330078125,-0.396484375,-1.558349609375,0.0078125,0.03515625,0.0234375,0.001953125,0.00390625,-0.00390625
2026-09-02T13:16:48.567943,-0.20196533203125,0.038330078125,-0.396484375,-1.558349609375,0.0078125,0.03515625,0.0234375,0.001953125,0.00390625,-0.00390625
2026-09-02T13:16:48.667841,-0.20196533203125,0.038330078125,-0.396484375,-1.558349609375,0.0078125,0.03515625,0.0234375,0.001953125,0.00390625,-0.00390625
2026-09-02T13:16:48.768139,-0.20196533203125,0.038330078125,-0.396484375,-1.558349609375,0.0078125,0.03515625,0.0234375,0.001953125,0.00390625,-0.00390625
2026-09-02T13:16:48.868366,-0.20196533203125,0.038330078125,-0.396484375,-1.558349609375,0.0078125,0.03515625,0.0234375,0.001953125,0.00390625,-0.00390625
2026-09-02T13:16:48.968612,-0.20196533203125,0.038330078125,-0.396484375,-1.558349609375,0.0078125,0.03515625,0.0234375,0.001953125,0.00390625,-0.00390625
2026-09-02T13:16:49.068458,-0.20196533203125,0.038330078125,-0.396484375,-1.558349609375,0.0078125,0.03515625,0.0234375,0.001953125,0.00390625,-0.00390625
2026-09-02T13:16:49.168063,-0.20196533203125,0.038330078125,-0.396484375,-1.558349609375,0.0078125,0.03515625,0.0234375,0.001953125,0.00390625,-0.00390625
2026-09-02T13:16:49.268712,-0.20196533203125,0.038330078125,-0.396484375,-1.558349609375,0.0078125,0.03515625,0.0234375,0.001953125,0.00390625,-0.00390625
2026-09-02T13:16:49.368969,-0.20196533203125,0.038330078125,-0.396484375,-1.558349609375,0.0078125,0.03515625,0.0234375,0.001953125,0.00390625,-0.00390625
2026-09-02T13:16:49.468956,-0.20196533203125,0.038330078125,-0.396484375,-1.558349609375,0.0078125,0.03515625,0.0234375,0.001953125,0.00390625,-0.00390625
2026-09-02T13:16:49.569192,-0.20196533203125,0.038330078125,-0.396484375,-1.558349609375,0.0078125,0.03515625,0.0234375,0.001953125,0.00390625,-0.00390625
2026-09-02T13:16:49.669147,-0.20196533203125,0.038330078125,-0.396484375,-1.558349609375,0.0078125,0.03515625,0.0234375,0.001953125,0.00390625,-0.00390625
2026-09-02T13:16:49.769200,-0.20196533203125,0.038330078125,-0.396484375,-1.558349609375,0.0078125,0.03515625,0.0234375,0.001953125,0.00390625,-0.00390625
2026-09-02T13:16:49.869415,-0.20196533203125,0.038330078125,-0.396484375,-1.558349609375,0.0078125,0.03515625,0.0234375,0.001953125,0.00390625,-0.00390625
2026-09-02T13:16:49.969592,-0.20196533203125,0.038330078125,-0.396484375,-1.558349609375,0.0078125,0.03515625,0.0234375,0.001953125,0.00390625,-0.00390625
2026-09-02T13:16:50.069578,-0.20196533203125,0.038330078125,-0.396484375,-1.558349609375,0.0078125,0.03515625,0.0234375,0.001953125,0.00390625,-0.00390625
2026-09-02T13:16:50.169752,-0.20196533203125,0.038330078125,-0.396484375,-1.558349609375,0.0078125,0.03515625,0.0234375,0.001953125,0.00390625,-0.00390625
2026-09-02T13:16:50.269897,-0.20196533203125,0.038330078125,-0.396484375,-1.558349609375,0.0078125,0.03515625,0.0234375,0.001953125,0.00390625,-0.00390625
2026-09-02T13:16:50.369989,-0.20196533203125,0.038330078125,-0.396484375,-1.558349609375,0.0078125,0.03515625,0.0234375,0.001953125,0.00390625,-0.00390625
2026-09-02T13:16:50.470223,-0.20196533203125,0.038330078125,-0.396484375,-1.558349609375,0.0078125,0.03515625,0.0234375,0.001953125,0.00390625,-0.00390625
2026-09-02T13:16:50.570331,-0.20196533203125,0.038330078125,-0.396484375,-1.558349609375,0.0078125,0.03515625,0.0234375,0.001953125,0.00390625,-0.00390625
2026-09-02T13:16:50.669721,-0.20196533203125,0.038330078125,-0.396484375,-1.558349609375,0.0078125,0.03515625,0.0234375,0.001953125,0.00390625,-0.00390625
2026-09-02T13:16:50.770627,-0.20196533203125,0.038330078125,-0.396484375,-1.558349609375,0.0078125,0.03515625,0.0234375,0.001953125,0.00390625,-0.00390625
2026-09-02T13:16:50.870496,-0.20196533203125,0.038330078125,-0.396484375,-1.558349609375,0.0078125,0.03515625,0.0234375,0.001953125,0.00390625,-0.00390625
2026-09-02T13:16:50.970818,-0.20196533203125,0.038330078125,-0.396484375,-1.558349609375,0.0078125,0.03515625,0.0234375,0.001953125,0.00390625,-0.00390625
2026-09-02T13:16:51.070642,-0.20196533203125,0.038330078125,-0.396484375,-1.558349609375,0.0078125,0.03515625,0.0234375,0.001953125,0.00390625,-0.00390625
2026-09-02T13:16:51.171693,-0.20196533203125,0.038330078125,-0.396484375,-1.558349609375,0.0078125,0.03515625,0.0234375,0.001953125,0.00390625,-0.00390625
2026-09-02T13:16:51.270912,-0.20196533203125,0.038330078125,-0.396484375,-1.558349609375,0.0078125,0.03515625,0.0234375,0.001953125,0.00390625,-0.00390625
2026-09-02T13:16:51.371187,-0.20196533203125,0.038330078125,-0.396484375,-1.558349609375,0.0078125,0.03515625,0.0234375,0.001953125,0.00390625,-0.00390625
2026-09-02T13:16:51.471143,-0.20196533203125,0.038330078125,-0.396484375,-1.558349609375,0.0078125,0.03515625,0.0234375,0.001953125,0.00390625,-0.00390625
2026-09-02T13:16:51.571314,-0.20196533203125,0.038330078125,-0.396484375,-1.558349609375,0.0078125,0.03515625,0.0234375,0.001953125,0.00390625,-0.00390625
2026-09-02T13:16:51.671100,-0.20196533203125,0.038330078125,-0.396484375,-1.558349609375,0.0078125,0.03515625,0.0234375,0.001953125,0.00390625,-0.00390625
2026-09-02T13:16:51.771532,-0.20196533203125,0.038330078125,-0.396484375,-1.558349609375,0.0078125,0.03515625,0.0234375,0.001953125,0.00390625,-0.00390625
2026-09-02T13:16:51.871706,-0.20196533203125,0.038330078125,-0.396484375,-1.558349609375,0.0078125,0.03515625,0.0234375,0.001953125,0.00390625,-0.00390625
2026-09-02T13:16:51.971387,-0.20196533203125,0.038330078125,-0.396484375,-1.558349609375,0.0078125,0.03515625,0.0234375,0.001953125,0.00390625,-0.00390625
2026-09-02T13:16:52.071811,-0.20196533203125,0.038330078125,-0.396484375,-1.558349609375,0.0078125,0.03515625,0.0234375,0.001953125,0.00390625,-0.00390625
2026-09-02T13:16:52.171827,-0.20196533203125,0.038330078125,-0.396484375,-1.558349609375,0.0078125,0.03515625,0.0234375,0.001953125,0.00390625,-0.00390625
2026-09-02T13:16:52.272042,-0.20196533203125,0.038330078125,-0.396484375,-1.558349609375,0.0078125,0.03515625,0.0234375,0.001953125,0.00390625,-0.00390625
2026-09-02T13:16:52.372429,-0.20196533203125,0.038330078125,-0.396484375,-1.558349609375,0.0078125,0.03515625,0.0234375,0.001953125,0.00390625,-0.00390625
2026-09-02T13:16:52.472282,-0.20196533203125,0.038330078125,-0.396484375,-1.558349609375,0.0078125,0.03515625,0.0234375,0.001953125,0.00390625,-0.00390625
2026-09-02T13:16:52.572455,-0.20196533203125,0.038330078125,-0.396484375,-1.558349609375,0.0078125,0.03515625,0.0234375,0.001953125,0.00390625,-0.00390625
2026-09-02T13:16:52.672633,-0.20196533203125,0.038330078125,-0.396484375,-1.558349609375,0.0078125,0.03515625,0.0234375,0.001953125,0.00390625,-0.00390625
2026-09-02T13:16:52.772581,-0.20196533203125,0.038330078125,-0.396484375,-1.558349609375,0.0078125,0.03515625,0.0234375,0.001953125,0.00390625,-0.00390625
2026-09-02T13:16:52.872781,-0.20196533203125,0.038330078125,-0.396484375,-1.558349609375,0.0078125,0.03515625,0.0234375,0.001953125,0.00390625,-0.00390625
2026-09-02T13:16:52.973309,-0.20196533203125,0.038330078125,-0.396484375,-1.558349609375,0.0078125,0.03515625,0.0234375,0.001953125,0.00390625,-0.00390625
2026-09-02T13:16:53.073026,-0.20196533203125,0.038330078125,-0.396484375,-1.558349609375,0.0078125,0.03515625,0.0234375,0.001953125,0.00390625,-0.00390625
2026-09-02T13:16:53.173224,-0.20196533203125,0.038330078125,-0.396484375,-1.558349609375,0.0078125,0.03515625,0.0234375,0.001953125,0.00390625,-0.00390625
2026-09-02T13:16:53.273415,-0.20196533203125,0.038330078125,-0.396484375,-1.558349609375,0.0078125,0.03515625,0.0234375,0.001953125,0.00390625,-0.00390625
2026-09-02T13:16:53.373445,-0.20196533203125,0.038330078125,-0.396484375,-1.558349609375,0.0078125,0.03515625,0.0234375,0.001953125,0.00390625,-0.00390625
2026-09-02T13:16:53.473673,-0.20196533203125,0.038330078125,-0.396484375,-1.558349609375,0.0078125,0.03515625,0.0234375,0.001953125,0.00390625,-0.00390625
2026-09-02T13:16:53.573699,-0.20196533203125,0.038330078125,-0.396484375,-1.558349609375,0.0078125,0.03515625,0.0234375,0.001953125,0.00390625,-0.00390625
2026-09-02T13:16:53.673579,-0.20196533203125,0.038330078125,-0.396484375,-1.558349609375,0.0078125,0.03515625,0.0234375,0.001953125,0.00390625,-0.00390625
2026-09-02T13:16:53.774106,-0.20196533203125,0.038330078125,-0.396484375,-1.558349609375,0.0078125,0.03515625,0.0234375,0.001953125,0.00390625,-0.00390625
2026-09-02T13:16:53.874008,-0.20196533203125,0.038330078125,-0.396484375,-1.558349609375,0.0078125,0.03515625,0.0234375,0.001953125,0.00390625,-0.00390625
2026-09-02T13:16:53.974161,-0.20196533203125,0.038330078125,-0.396484375,-1.558349609375,0.0078125,0.03515625,0.0234375,0.001953125,0.00390625,-0.00390625
2026-09-02T13:16:54.074266,-0.20196533203125,0.038330078125,-0.396484375,-1.558349609375,0.0078125,0.03515625,0.0234375,0.001953125,0.00390625,-0.00390625
2026-09-02T13:16:54.173953,-0.20196533203125,0.038330078125,-0.396484375,-1.558349609375,0.0078125,0.03515625,0.0234375,0.001953125,0.00390625,-0.00390625
2026-09-02T13:16:54.274518,-0.20196533203125,0.038330078125,-0.396484375,-1.558349609375,0.0078125,0.03515625,0.0234375,0.001953125,0.00390625,-0.00390625
2026-09-02T13:16:54.374624,-0.20196533203125,0.038330078125,-0.396484375,-1.558349609375,0.0078125,0.03515625,0.0234375,0.001953125,0.00390625,-0.00390625
2026-09-02T13:16:54.474934,-0.20196533203125,0.038330078125,-0.396484375,-1.558349609375,0.0078125,0.03515625,0.0234375,0.001953125,0.00390625,-0.00390625
2026-09-02T13:16:54.574859,-0.20196533203125,0.038330078125,-0.396484375,-1.558349609375,0.0078125,0.03515625,0.0234375,0.001953125,0.00390625,-0.00390625
2026-09-02T13:16:54.674453,-0.20196533203125,0.038330078125,-0.396484375,-1.558349609375,0.0078125,0.03515625,0.0234375,0.001953125,0.00390625,-0.00390625
2026-09-02T13:16:54.775250,-0.20196533203125,0.038330078125,-0.396484375,-1.558349609375,0.0078125,0.03515625,0.0234375,0.001953125,0.00390625,-0.00390625
2026-09-02T13:16:54.875281,-0.20196533203125,0.038330078125,-0.396484375,-1.558349609375,0.0078125,0.03515625,0.0234375,0.001953125,0.00390625,-0.00390625
2026-09-02T13:16:54.975481,-0.20196533203125,0.038330078125,-0.396484375,-1.558349609375,0.0078125,0.03515625,0.0234375,0.001953125,0.00390625,-0.00390625
2026-09-02T13:16:55.075380,-0.20196533203125,0.038330078125,-0.396484375,-1.558349609375,0.0078125,0.03515625,0.0234375,0.001953125,0.00390625,-0.00390625
2026-09-02T13:16:55.174995,-0.20196533203125,0.038330078125,-0.396484375,-1.558349609375,0.0078125,0.03515625,0.0234375,0.001953125,0.00390625,-0.00390625
2026-09-02T13:16:55.275799,-0.20196533203125,0.038330078125,-0.396484375,-1.558349609375,0.0078125,0.03515625,0.0234375,0.001953125,0.00390625,-0.00390625
2026-09-02T13:16:55.375672,-0.20196533203125,0.038330078125,-0.396484375,-1.558349609375,0.0078125,0.03515625,0.0234375,0.001953125,0.00390625,-0.00390625
2026-09-02T13:16:55.475856,-0.20196533203125,0.038330078125,-0.396484375,-1.558349609375,0.0078125,0.03515625,0.0234375,0.001953125,0.00390625,-0.00390625
2026-09-02T13:16:55.576049,-0.20196533203125,0.038330078125,-0.396484375,-1.558349609375,0.0078125,0.03515625,0.0234375,0.001953125,0.00390625,-0.00390625
2026-09-02T13:16:55.676074,-0.20196533203125,0.038330078125,-0.396484375,-1.558349609375,0.0078125,0.03515625,0.0234375,0.001953125,0.00390625,-0.00390625
2026-09-02T13:16:55.776453,-0.20196533203125,0.038330078125,-0.396484375,-1.558349609375,0.0078125,0.03515625,0.0234375,0.001953125,0.00390625,-0.00390625
2026-09-02T13:16:55.876342,-0.20196533203125,0.038330078125,-0.396484375,-1.558349609375,0.0078125,0.03515625,0.0234375,0.001953125,0.00390625,-0.00390625
2026-09-02T13:16:55.976474,-0.20196533203125,0.038330078125,-0.396484375,-1.558349609375,0.0078125,0.03515625,0.0234375,0.001953125,0.00390625,-0.00390625
2026-09-02T13:16:56.076483,-0.20196533203125,0.038330078125,-0.396484375,-1.558349609375,0.0078125,0.03515625,0.0234375,0.001953125,0.00390625,-0.00390625
2026-09-02T13:16:56.176815,-0.20196533203125,0.038330078125,-0.396484375,-1.558349609375,0.0078125,0.03515625,0.0234375,0.001953125,0.00390625,-0.00390625
2026-09-02T13:16:56.276696,-0.20196533203125,0.038330078125,-0.396484375,-1.558349609375,0.0078125,0.03515625,0.0234375,0.001953125,0.00390625,-0.00390625
2026-09-02T13:16:56.376826,-0.20196533203125,0.038330078125,-0.396484375,-1.558349609375,0.0078125,0.03515625,0.0234375,0.001953125,0.00390625,-0.00390625
2026-09-02T13:16:56.477130,-0.20196533203125,0.038330078125,-0.396484375,-1.558349609375,0.0078125,0.03515625,0.0234375,0.001953125,0.00390625,-0.00390625
2026-09-02T13:16:56.577101,-0.20196533203125,0.038330078125,-0.396484375,-1.558349609375,0.0078125,0.03515625,0.0234375,0.001953125,0.00390625,-0.00390625
2026-09-02T13:16:56.677292,-0.20196533203125,0.038330078125,-0.396484375,-1.558349609375,0.0078125,0.03515625,0.0234375,0.001953125,0.00390625,-0.00390625
2026-09-02T13:16:56.777372,-0.20196533203125,0.038330078125,-0.396484375,-1.558349609375,0.0078125,0.03515625,0.0234375,0.001953125,0.00390625,-0.00390625
2026-09-02T13:16:56.877615,-0.20196533203125,0.038330078125,-0.396484375,-1.558349609375,0.0078125,0.03515625,0.0234375,0.001953125,0.00390625,-0.00390625
2026-09-02T13:16:56.977539,-0.20196533203125,0.038330078125,-0.396484375,-1.558349609375,0.0078125,0.03515625,0.0234375,0.001953125,0.00390625,-0.00390625
2026-09-02T13:16:57.077702,-0.20196533203125,0.038330078125,-0.396484375,-1.558349609375,0.0078125,0.03515625,0.0234375,0.001953125,0.00390625,-0.00390625
2026-09-02T13:16:57.177546,-0.20196533203125,0.038330078125,-0.396484375,-1.558349609375,0.0078125,0.03515625,0.0234375,0.001953125,0.00390625,-0.00390625
2026-09-02T13:16:57.277954,-0.20196533203125,0.038330078125,-0.396484375,-1.558349609375,0.0078125,0.03515625,0.0234375,0.001953125,0.00390625,-0.00390625
2026-09-02T13:16:57.377939,-0.20196533203125,0.038330078125,-0.396484375,-1.558349609375,0.0078125,0.03515625,0.0234375,0.001953125,0.00390625,-0.00390625
2026-09-02T13:16:57.479592,-0.20196533203125,0.038330078125,-0.396484375,-1.558349609375,0.0078125,0.03515625,0.0234375,0.001953125,0.00390625,-0.00390625
2026-09-02T13:16:57.579363,-0.20196533203125,0.038330078125,-0.396484375,-1.558349609375,0.0078125,0.03515625,0.0234375,0.001953125,0.00390625,-0.00390625
2026-09-02T13:16:57.679536,-0.20196533203125,0.038330078125,-0.396484375,-1.558349609375,0.0078125,0.03515625,0.0234375,0.001953125,0.00390625,-0.00390625
2026-09-02T13:16:57.779607,-0.20196533203125,0.038330078125,-0.396484375,-1.558349609375,0.0078125,0.03515625,0.0234375,0.001953125,0.00390625,-0.00390625
2026-09-02T13:16:57.879787,-0.20196533203125,0.038330078125,-0.396484375,-1.558349609375,0.0078125,0.03515625,0.0234375,0.001953125,0.00390625,-0.00390625
2026-09-02T13:16:57.980099,-0.20196533203125,0.038330078125,-0.396484375,-1.558349609375,0.0078125,0.03515625,0.0234375,0.001953125,0.00390625,-0.00390625
2026-09-02T13:16:58.079925,-0.20196533203125,0.038330078125,-0.396484375,-1.558349609375,0.0078125,0.03515625,0.0234375,0.001953125,0.00390625,-0.00390625
2026-09-02T13:16:58.180805,-0.20196533203125,0.038330078125,-0.396484375,-1.558349609375,0.0078125,0.03515625,0.0234375,0.001953125,0.00390625,-0.00390625
2026-09-02T13:16:58.280203,-0.20196533203125,0.038330078125,-0.396484375,-1.558349609375,0.0078125,0.03515625,0.0234375,0.001953125,0.00390625,-0.00390625
2026-09-02T13:16:58.380372,-0.20196533203125,0.038330078125,-0.396484375,-1.558349609375,0.0078125,0.03515625,0.0234375,0.001953125,0.00390625,-0.00390625
2026-09-02T13:16:58.480495,-0.20196533203125,0.038330078125,-0.396484375,-1.558349609375,0.0078125,0.03515625,0.0234375,0.001953125,0.00390625,-0.00390625
2026-09-02T13:16:58.580649,-0.20196533203125,0.038330078125,-0.396484375,-1.558349609375,0.0078125,0.03515625,0.0234375,0.001953125,0.00390625,-0.00390625
2026-09-02T13:16:58.679836,-0.20196533203125,0.038330078125,-0.396484375,-1.558349609375,0.0078125,0.03515625,0.0234375,0.001953125,0.00390625,-0.00390625
2026-09-02T13:16:58.780710,-0.20196533203125,0.038330078125,-0.396484375,-1.558349609375,0.0078125,0.03515625,0.0234375,0.001953125,0.00390625,-0.00390625
2026-09-02T13:16:58.880903,-0.20196533203125,0.038330078125,-0.396484375,-1.558349609375,0.0078125,0.03515625,0.0234375,0.001953125,0.00390625,-0.00390625
2026-09-02T13:16:58.981072,-0.20196533203125,0.038330078125,-0.396484375,-1.558349609375,0.0078125,0.03515625,0.0234375,0.001953125,0.00390625,-0.00390625
2026-09-02T13:16:59.081096,-0.20196533203125,0.038330078125,-0.396484375,-1.558349609375,0.0078125,0.03515625,0.0234375,0.001953125,0.00390625,-0.00390625
2026-09-02T13:16:59.181275,-0.20196533203125,0.038330078125,-0.396484375,-1.558349609375,0.0078125,0.03515625,0.0234375,0.001953125,0.00390625,-0.00390625
2026-09-02T13:16:59.281653,-0.20196533203125,0.038330078125,-0.396484375,-1.558349609375,0.0078125,0.03515625,0.0234375,0.001953125,0.00390625,-0.00390625
