timestamp,quat_i,quat_j,quat_k,quat_real,accel_x,accel_y,accel_z,gyro_x,gyro_y,gyro_z
2026-09-02T07:44:23.969076,0.0,0.0,0.0,0.0,0.0,0.0,0.0,0.0,0.0,0.0
2026-09-02T07:44:24.092724,0.52581787109375,-0.3524169921875,-0.671142578125,0.38592529296875,-2.74609375,5.453125,1.375,0.001953125,-0.005859375,-0.00390625
2026-09-02T07:44:24.188264,0.52557373046875,-0.35174560546875,-0.671630859375,0.385986328125,-1.640625,3.4921875,0.72265625,-0.02734375,-0.0078125,-0.0078125
2026-09-02T07:44:24.280069,0.52557373046875,-0.35174560546875,-0.671630859375,0.38592529296875,-1.234375,2.6484375,0.5625,0.005859375,0.005859375,0.001953125
2026-09-02T07:44:24.380485,0.52520751953125,-0.35125732421875,-0.67205810546875,0.3861083984375,-0.74609375,1.53125,0.328125,-0.0234375,-0.0078125,-0.009765625
2026-09-02T07:44:24.486836,0.525146484375,-0.35107421875,-0.67218017578125,0.38616943359375,-0.48046875,0.890625,0.32421875,0.00390625,0.013671875,0.00390625
2026-09-02T07:44:24.579617,0.52496337890625,-0.350830078125,-0.6724853515625,0.38623046875,-0.21484375,0.5,0.03125,0.01953125,0.0078125,0.005859375
2026-09-02T07:44:25.122945,0.524658203125,-0.3582763671875,-0.6727294921875,0.38641357421875,-0.18359375,0.25,0.140625,-0.021484375,-0.0078125,-0.001953125
2026-09-02T07:44:25.223034,0.524658203125,-0.3582763671875,-0.6727294921875,0.38641357421875,-0.18359375,0.25,0.140625,-0.021484375,-0.0078125,-0.001953125
2026-09-02T07:44:25.323294,0.524658203125,-0.3582763671875,-0.6727294921875,0.38641357421875,-0.18359375,0.25,0.140625,-0.021484375,-0.0078125,-0.001953125
2026-09-02T07:44:25.423255,0.524658203125,-0.3582763671875,-0.6727294921875,0.38641357421875,-0.18359375,0.25,0.140625,-0.021484375,-0.0078125,-0.001953125
2026-09-02T07:44:25.523550,0.524658203125,-0.3582763671875,-0.6727294921875,0.38641357421875,-0.18359375,0.25,0.140625,-0.021484375,-0.0078125,-0.001953125
2026-09-02T07:44:25.623511,0.524658203125,-0.3582763671875,-0.6727294921875,0.38641357421875,-0.18359375,0.25,0.140625,-0.021484375,-0.0078125,-0.001953125
2026-09-02T07:44:25.723806,0.524658203125,-0.3582763671875,-0.6727294921875,0.38641357421875,-0.18359375,0.25,0.140625,-0.021484375,-0.0078125,-0.001953125
2026-09-02T07:44:25.823700,0.524658203125,-0.3582763671875,-0.6727294921875,0.38641357421875,-0.18359375,0.25,0.140625,-0.021484375,-0.0078125,-0.001953125
2026-09-02T07:44:25.923812,0.524658203125,-0.3582763671875,-0.6727294921875,0.38641357421875,-0.18359375,0.25,0.140625,-0.021484375,-0.0078125,-0.001953125
2026-09-02T07:44:26.023879,0.524658203125,-0.3582763671875,-0.6727294921875,0.38641357421875,-0.18359375,0.25,0.140625,-0.021484375,-0.0078125,-0.001953125
2026-09-02T07:44:26.123996,0.524658203125,-0.3582763671875,-0.6727294921875,0.38641357421875,-0.18359375,0.25,0.140625,-0.021484375,-0.0078125,-0.001953125
2026-09-02T07:44:26.224413,0.524658203125,-0.3582763671875,-0.6727294921875,0.38641357421875,-0.18359375,0.25,0.140625,-0.021484375,-0.0078125,-0.001953125
2026-09-02T07:44:26.324146,0.524658203125,-0.3582763671875,-0.6727294921875,0.38641357421875,-0.18359375,0.25,0.140625,-0.021484375,-0.0078125,-0.001953125
2026-09-02T07:44:26.424281,0.524658203125,-0.3582763671875,-0.6727294921875,0.38641357421875,-0.18359375,0.25,0.140625,-0.021484375,-0.0078125,-0.001953125
2026-09-02T07:44:26.524402,0.524658203125,-0.3582763671875,-0.6727294921875,0.38641357421875,-0.18359375,0.25,0.140625,-0.021484375,-0.0078125,-0.001953125
2026-09-02T07:44:26.624535,0.524658203125,-0.3582763671875,-0.6727294921875,0.38641357421875,-0.18359375,0.25,0.140625,-0.021484375,-0.0078125,-0.001953125
2026-09-02T07:44:26.724654,0.524658203125,-0.3582763671875,-0.6727294921875,0.38641357421875,-0.18359375,0.25,0.140625,-0.021484375,-0.0078125,-0.001953125
2026-09-02T07:44:26.824727,0.524658203125,-0.3582763671875,-0.6727294921875,0.38641357421875,-0.18359375,0.25,0.140625,-0.021484375,-0.0078125,-0.001953125
2026-09-02T07:44:26.924936,0.524658203125,-0.3582763671875,-0.6727294921875,0.38641357421875,-0.18359375,0.25,0.140625,-0.021484375,-0.0078125,-0.001953125
2026-09-02T07:44:27.025200,0.524658203125,-0.3582763671875,-0.6727294921875,0.38641357421875,-0.18359375,0.25,0.140625,-0.021484375,-0.0078125,-0.001953125
2026-09-02T07:44:27.125209,0.524658203125,-0.3582763671875,-0.6727294921875,0.38641357421875,-0.18359375,0.25,0.140625,-0.021484375,-0.0078125,-0.001953125
2026-09-02T07:44:27.225353,0.524658203125,-0.3582763671875,-0.6727294921875,0.38641357421875,-0.18359375,0.25,0.140625,-0.021484375,-0.0078125,-0.001953125
2026-09-02T07:44:27.325672,0.524658203125,-0.3582763671875,-0.6727294921875,0.38641357421875,-0.18359375,0.25,0.140625,-0.021484375,-0.0078125,-0.001953125
2026-09-02T07:44:27.425644,0.524658203125,-0.3582763671875,-0.6727294921875,0.38641357421875,-0.18359375,0.25,0.140625,-0.021484375,-0.0078125,-0.001953125
2026-09-02T07:44:27.525786,0.524658203125,-0.3582763671875,-0.6727294921875,0.38641357421875,-0.18359375,0.25,0.140625,-0.021484375,-0.0078125,-0.001953125
2026-09-02T07:44:27.625862,0.524658203125,-0.3582763671875,-0.6727294921875,0.38641357421875,-0.18359375,0.25,0.140625,-0.021484375,-0.0078125,-0.001953125
2026-09-02T07:44:27.725990,0.524658203125,-0.3582763671875,-0.6727294921875,0.38641357421875,-0.18359375,0.25,0.140625,-0.021484375,-0.0078125,-0.001953125
2026-09-02T07:44:27.826075,0.524658203125,-0.3582763671875,-0.6727294921875,0.38641357421875,-0.18359375,0.25,0.140625,-0.021484375,-0.0078125,-0.001953125
2026-09-02T07:44:27.926185,0.524658203125,-0.3582763671875,-0.6727294921875,0.38641357421875,-0.18359375,0.25,0.140625,-0.021484375,-0.0078125,-0.001953125
2026-09-02T07:44:28.026282,0.524658203125,-0.3582763671875,-0.6727294921875,0.38641357421875,-0.18359375,0.25,0.140625,-0.021484375,-0.0078125,-0.001953125
2026-09-02T07:44:28.126515,0.524658203125,-0.3582763671875,-0.6727294921875,0.38641357421875,-0.18359375,0.25,0.140625,-0.021484375,-0.0078125,-0.001953125
2026-09-02T07:44:28.226615,0.524658203125,-0.3582763671875,-0.6727294921875,0.38641357421875,-0.18359375,0.25,0.140625,-0.021484375,-0.0078125,-0.001953125
2026-09-02T07:44:28.326738,0.524658203125,-0.3582763671875,-0.6727294921875,0.38641357421875,-0.18359375,0.25,0.140625,-0.021484375,-0.0078125,-0.001953125
2026-09-02T07:44:28.426854,0.524658203125,-0.3582763671875,-0.6727294921875,0.38641357421875,-0.18359375,0.25,0.140625,-0.021484375,-0.0078125,-0.001953125
2026-09-02T07:44:28.526623,0.524658203125,-0.3582763671875,-0.6727294921875,0.38641357421875,-0.18359375,0.25,0.140625,-0.021484375,-0.0078125,-0.001953125
2026-09-02T07:44:28.627165,0.524658203125,-0.3582763671875,-0.6727294921875,0.38641357421875,-0.18359375,0.25,0.140625,-0.021484375,-0.0078125,-0.001953125
2026-09-02T07:44:28.727247,0.524658203125,-0.3582763671875,-0.6727294921875,0.38641357421875,-0.18359375,0.25,0.140625,-0.021484375,-0.0078125,-0.001953125
2026-09-02T07:44:28.827330,0.524658203125,-0.3582763671875,-0.6727294921875,0.38641357421875,-0.18359375,0.25,0.140625,-0.021484375,-0.0078125,-0.001953125
2026-09-02T07:44:28.927410,0.524658203125,-0.3582763671875,-0.6727294921875,0.38641357421875,-0.18359375,0.25,0.140625,-0.021484375,-0.0078125,-0.001953125
2026-09-02T07:44:29.027697,0.524658203125,-0.3582763671875,-0.6727294921875,0.38641357421875,-0.18359375,0.25,0.140625,-0.021484375,-0.0078125,-0.001953125
2026-09-02T07:44:29.127693,0.524658203125,-0.3582763671875,-0.6727294921875,0.38641357421875,-0.18359375,0.25,0.140625,-0.021484375,-0.0078125,-0.001953125
2026-09-02T07:44:29.227781,0.524658203125,-0.3582763671875,-0.6727294921875,0.38641357421875,-0.18359375,0.25,0.140625,-0.021484375,-0.0078125,-0.001953125
2026-09-02T07:44:29.327907,0.524658203125,-0.3582763671875,-0.6727294921875,0.38641357421875,-0.18359375,0.25,0.140625,-0.021484375,-0.0078125,-0.001953125
2026-09-02T07:44:29.428036,0.524658203125,-0.3582763671875,-0.6727294921875,0.38641357421875,-0.18359375,0.25,0.140625,-0.021484375,-0.0078125,-0.001953125
2026-09-02T07:44:29.528168,0.524658203125,-0.3582763671875,-0.6727294921875,0.38641357421875,-0.18359375,0.25,0.140625,-0.021484375,-0.0078125,-0.001953125
2026-09-02T07:44:29.628278,0.524658203125,-0.3582763671875,-0.6727294921875,0.38641357421875,-0.18359375,0.25,0.140625,-0.021484375,-0.0078125,-0.001953125
2026-09-02T07:44:29.728405,0.524658203125,-0.3582763671875,-0.6727294921875,0.38641357421875,-0.18359375,0.25,0.140625,-0.021484375,-0.0078125,-0.001953125
2026-09-02T07:44:29.828466,0.524658203125,-0.3582763671875,-0.6727294921875,0.38641357421875,-0.18359375,0.25,0.140625,-0.021484375,-0.0078125,-0.001953125
2026-09-02T07:44:29.928716,0.524658203125,-0.3582763671875,-0.6727294921875,0.38641357421875,-0.18359375,0.25,0.140625,-0.021484375,-0.0078125,-0.001953125
2026-09-02T07:44:30.028670,0.524658203125,-0.3582763671875,-0.6727294921875,0.38641357421875,-0.18359375,0.25,0.140625,-0.021484375,-0.0078125,-0.001953125
2026-09-02T07:44:30.128523,0.524658203125,-0.3582763671875,-0.6727294921875,0.38641357421875,-0.18359375,0.25,0.140625,-0.021484375,-0.0078125,-0.001953125
2026-09-02T07:44:30.229043,0.524658203125,-0.3582763671875,-0.6727294921875,0.38641357421875,-0.18359375,0.25,0.140625,-0.021484375,-0.0078125,-0.001953125
2026-09-02T07:44:30.329164,0.524658203125,-0.3582763671875,-0.6727294921875,0.38641357421875,-0.18359375,0.25,0.140625,-0.021484375,-0.0078125,-0.001953125
2026-09-02T07:44:30.429238,0.524658203125,-0.3582763671875,-0.6727294921875,0.38641357421875,-0.18359375,0.25,0.140625,-0.021484375,-0.0078125,-0.001953125
2026-09-02T07:44:30.529350,0.524658203125,-0.3582763671875,-0.6727294921875,0.38641357421875,-0.18359375,0.25,0.140625,-0.021484375,-0.0078125,-0.001953125
2026-09-02T07:44:30.629098,0.524658203125,-0.3582763671875,-0.6727294921875,0.38641357421875,-0.18359375,0.25,0.140625,-0.021484375,-0.0078125,-0.001953125
2026-09-02T07:44:30.729631,0.524658203125,-0.3582763671875,-0.6727294921875,0.38641357421875,-0.18359375,0.25,0.140625,-0.021484375,-0.0078125,-0.001953125
2026-09-02T07:44:30.829811,0.524658203125,-0.3582763671875,-0.6727294921875,0.38641357421875,-0.18359375,0.25,0.140625,-0.021484375,-0.0078125,-0.001953125
2026-09-02T07:44:30.929833,0.524658203125,-0.3582763671875,-0.6727294921875,0.38641357421875,-0.18359375,0.25,0.140625,-0.021484375,-0.0078125,-0.001953125
2026-09-02T07:44:31.029954,0.524658203125,-0.3582763671875,-0.6727294921875,0.38641357421875,-0.18359375,0.25,0.140625,-0.021484375,-0.0078125,-0.001953125
2026-09-02T07:44:31.129674,0.524658203125,-0.3582763671875,-0.6727294921875,0.38641357421875,-0.18359375,0.25,0.140625,-0.021484375,-0.0078125,-0.001953125
2026-09-02T07:44:31.230195,0.524658203125,-0.3582763671875,-0.6727294921875,0.38641357421875,-0.18359375,0.25,0.140625,-0.021484375,-0.0078125,-0.001953125
2026-09-02T07:44:31.330399,0.524658203125,-0.3582763671875,-0.6727294921875,0.38641357421875,-0.18359375,0.25,0.140625,-0.021484375,-0.0078125,-0.001953125
2026-09-02T07:44:31.430521,0.524658203125,-0.3582763671875,-0.6727294921875,0.38641357421875,-0.18359375,0.25,0.140625,-0.021484375,-0.0078125,-0.001953125
2026-09-02T07:44:31.530642,0.524658203125,-0.3582763671875,-0.6727294921875,0.38641357421875,-0.18359375,0.25,0.140625,-0.021484375,-0.0078125,-0.001953125
2026-09-02T07:44:31.630247,0.524658203125,-0.3582763671875,-0.6727294921875,0.38641357421875,-0.18359375,0.25,0.140625,-0.021484375,-0.0078125,-0.001953125
2026-09-02T07:44:31.730830,0.524658203125,-0.3582763671875,-0.6727294921875,0.38641357421875,-0.18359375,0.25,0.140625,-0.021484375,-0.0078125,-0.001953125
2026-09-02T07:44:31.830991,0.524658203125,-0.3582763671875,-0.6727294921875,0.38641357421875,-0.18359375,0.25,0.140625,-0.021484375,-0.0078125,-0.001953125
2026-09-02T07:44:31.931162,0.524658203125,-0.3582763671875,-0.6727294921875,0.38641357421875,-0.18359375,0.25,0.140625,-0.021484375,-0.0078125,-0.001953125
2026-09-02T07:44:32.031286,0.524658203125,-0.3582763671875,-0.6727294921875,0.38641357421875,-0.18359375,0.25,0.140625,-0.021484375,-0.0078125,-0.001953125
2026-09-02T07:44:32.131387,0.524658203125,-0.3582763671875,-0.6727294921875,0.38641357421875,-0.18359375,0.25,0.140625,-0.021484375,-0.0078125,-0.001953125
2026-09-02T07:44:32.231562,0.524658203125,-0.3582763671875,-0.6727294921875,0.38641357421875,-0.18359375,0.25,0.140625,-0.021484375,-0.0078125,-0.001953125
2026-09-02T07:44:32.331634,0.524658203125,-0.3582763671875,-0.6727294921875,0.38641357421875,-0.18359375,0.25,0.140625,-0.021484375,-0.0078125,-0.001953125
2026-09-02T07:44:32.431750,0.524658203125,-0.3582763671875,-0.6727294921875,0.38641357421875,-0.18359375,0.25,0.140625,-0.021484375,-0.0078125,-0.001953125
2026-09-02T07:44:32.531851,0.524658203125,-0.3582763671875,-0.6727294921875,0.38641357421875,-0.18359375,0.25,0.140625,-0.021484375,-0.0078125,-0.001953125
2026-09-02T07:44:32.631523,0.524658203125,-0.3582763671875,-0.6727294921875,0.38641357421875,-0.18359375,0.25,0.140625,-0.021484375,-0.0078125,-0.001953125
2026-09-02T07:44:32.732102,0.524658203125,-0.3582763671875,-0.6727294921875,0.38641357421875,-0.18359375,0.25,0.140625,-0.021484375,-0.0078125,-0.001953125
2026-09-02T07:44:32.832260,0.524658203125,-0.3582763671875,-0.6727294921875,0.38641357421875,-0.18359375,0.25,0.140625,-0.021484375,-0.0078125,-0.001953125
2026-09-02T07:44:32.932437,0.524658203125,-0.3582763671875,-0.6727294921875,0.38641357421875,-0.18359375,0.25,0.140625,-0.021484375,-0.0078125,-0.001953125
2026-09-02T07:44:33.032441,0.524658203125,-0.3582763671875,-0.6727294921875,0.38641357421875,-0.18359375,0.25,0.140625,-0.021484375,-0.0078125,-0.001953125
2026-09-02T07:44:33.132554,0.524658203125,-0.3582763671875,-0.6727294921875,0.38641357421875,-0.18359375,0.25,0.140625,-0.021484375,-0.0078125,-0.001953125
2026-09-02T07:44:33.232815,0.524658203125,-0.3582763671875,-0.6727294921875,0.38641357421875,-0.18359375,0.25,0.140625,-0.021484375,-0.0078125,-0.001953125
2026-09-02T07:44:33.332832,0.524658203125,-0.3582763671875,-0.6727294921875,0.38641357421875,-0.18359375,0.25,0.140625,-0.021484375,-0.0078125,-0.001953125
2026-09-02T07:44:33.432997,0.524658203125,-0.3582763671875,-0.6727294921875,0.38641357421875,-0.18359375,0.25,0.140625,-0.021484375,-0.0078125,-0.001953125
2026-09-02T07:44:33.533108,0.524658203125,-0.3582763671875,-0.6727294921875,0.38641357421875,-0.18359375,0.25,0.140625,-0.021484375,-0.0078125,-0.001953125
2026-09-02T07:44:33.633318,0.524658203125,-0.3582763671875,-0.6727294921875,0.38641357421875,-0.18359375,0.25,0.140625,-0.021484375,-0.0078125,-0.001953125
2026-09-02T07:44:33.733398,0.524658203125,-0.3582763671875,-0.6727294921875,0.38641357421875,-0.18359375,0.25,0.140625,-0.021484375,-0.0078125,-0.001953125
2026-09-02T07:44:33.833549,0.524658203125,-0.3582763671875,-0.6727294921875,0.38641357421875,-0.18359375,0.25,0.140625,-0.021484375,-0.0078125,-0.001953125
2026-09-02T07:44:33.933581,0.524658203125,-0.3582763671875,-0.6727294921875,0.38641357421875,-0.18359375,0.25,0.140625,-0.021484375,-0.0078125,-0.001953125
2026-09-02T07:44:34.033541,0.524658203125,-0.3582763671875,-0.6727294921875,0.38641357421875,-0.18359375,0.25,0.140625,-0.021484375,-0.0078125,-0.001953125
2026-09-02T07:44:34.133723,0.524658203125,-0.3582763671875,-0.6727294921875,0.38641357421875,-0.18359375,0.25,0.140625,-0.021484375,-0.0078125,-0.001953125
2026-09-02T07:44:34.233867,0.524658203125,-0.3582763671875,-0.6727294921875,0.38641357421875,-0.18359375,0.25,0.140625,-0.021484375,-0.0078125,-0.001953125
2026-09-02T07:44:34.334002,0.524658203125,-0.3582763671875,-0.6727294921875,0.38641357421875,-0.18359375,0.25,0.140625,-0.021484375,-0.0078125,-0.001953125
2026-09-02T07:44:34.434065,0.524658203125,-0.3582763671875,-0.6727294921875,0.38641357421875,-0.18359375,0.25,0.140625,-0.021484375,-0.0078125,-0.001953125
2026-09-02T07:44:34.534238,0.524658203125,-0.3582763671875,-0.6727294921875,0.38641357421875,-0.18359375,0.25,0.140625,-0.021484375,-0.0078125,-0.001953125
2026-09-02T07:44:34.634383,0.524658203125,-0.3582763671875,-0.6727294921875,0.38641357421875,-0.18359375,0.25,0.140625,-0.021484375,-0.0078125,-0.001953125
2026-09-02T07:44:34.734510,0.524658203125,-0.3582763671875,-0.6727294921875,0.38641357421875,-0.18359375,0.25,0.140625,-0.021484375,-0.0078125,-0.001953125
2026-09-02T07:44:34.834768,0.524658203125,-0.3582763671875,-0.6727294921875,0.38641357421875,-0.18359375,0.25,0.140625,-0.021484375,-0.0078125,-0.001953125
2026-09-02T07:44:34.934880,0.524658203125,-0.3582763671875,-0.6727294921875,0.38641357421875,-0.18359375,0.25,0.140625,-0.021484375,-0.0078125,-0.001953125
2026-09-02T07:44:35.035053,0.524658203125,-0.3582763671875,-0.6727294921875,0.38641357421875,-0.18359375,0.25,0.140625,-0.021484375,-0.0078125,-0.001953125
2026-09-02T07:44:35.135175,0.524658203125,-0.3582763671875,-0.6727294921875,0.38641357421875,-0.18359375,0.25,0.140625,-0.021484375,-0.0078125,-0.001953125
2026-09-02T07:44:35.235382,0.524658203125,-0.3582763671875,-0.6727294921875,0.38641357421875,-0.18359375,0.25,0.140625,-0.021484375,-0.0078125,-0.001953125
2026-09-02T07:44:35.335359,0.524658203125,-0.3582763671875,-0.6727294921875,0.38641357421875,-0.18359375,0.25,0.140625,-0.021484375,-0.0078125,-0.001953125
2026-09-02T07:44:35.435470,0.524658203125,-0.3582763671875,-0.6727294921875,0.38641357421875,-0.18359375,0.25,0.140625,-0.021484375,-0.0078125,-0.001953125
2026-09-02T07:44:35.535645,0.524658203125,-0.3582763671875,-0.6727294921875,0.38641357421875,-0.18359375,0.25,0.140625,-0.021484375,-0.0078125,-0.001953125
2026-09-02T07:44:35.635729,0.524658203125,-0.3582763671875,-0.6727294921875,0.38641357421875,-0.18359375,0.25,0.140625,-0.021484375,-0.0078125,-0.001953125
2026-09-02T07:44:35.735896,0.524658203125,-0.3582763671875,-0.6727294921875,0.38641357421875,-0.18359375,0.25,0.140625,-0.021484375,-0.0078125,-0.001953125
2026-09-02T07:44:35.836040,0.524658203125,-0.3582763671875,-0.6727294921875,0.38641357421875,-0.18359375,0.25,0.140625,-0.021484375,-0.0078125,-0.001953125
2026-09-02T07:44:35.936118,0.524658203125,-0.3582763671875,-0.6727294921875,0.38641357421875,-0.18359375,0.25,0.140625,-0.021484375,-0.0078125,-0.001953125
2026-09-02T07:44:36.036081,0.524658203125,-0.3582763671875,-0.6727294921875,0.38641357421875,-0.18359375,0.25,0.140625,-0.021484375,-0.0078125,-0.001953125
2026-09-02T07:44:36.136624,0.524658203125,-0.3582763671875,-0.6727294921875,0.38641357421875,-0.18359375,0.25,0.140625,-0.021484375,-0.0078125,-0.001953125
2026-09-02T07:44:36.236420,0.524658203125,-0.3582763671875,-0.6727294921875,0.38641357421875,-0.18359375,0.25,0.140625,-0.021484375,-0.0078125,-0.001953125
2026-09-02T07:44:36.336540,0.524658203125,-0.3582763671875,-0.6727294921875,0.38641357421875,-0.18359375,0.25,0.140625,-0.021484375,-0.0078125,-0.001953125
2026-09-02T07:44:36.436670,0.524658203125,-0.3582763671875,-0.6727294921875,0.38641357421875,-0.18359375,0.25,0.140625,-0.021484375,-0.0078125,-0.001953125
2026-09-02T07:44:36.536733,0.524658203125,-0.3582763671875,-0.6727294921875,0.38641357421875,-0.18359375,0.25,0.140625,-0.021484375,-0.0078125,-0.001953125
2026-09-02T07:44:36.637275,0.524658203125,-0.3582763671875,-0.6727294921875,0.38641357421875,-0.18359375,0.25,0.140625,-0.021484375,-0.0078125,-0.001953125
2026-09-02T07:44:36.737003,0.524658203125,-0.3582763671875,-0.6727294921875,0.38641357421875,-0.18359375,0.25,0.140625,-0.021484375,-0.0078125,-0.001953125
2026-09-02T07:44:36.837107,0.524658203125,-0.3582763671875,-0.6727294921875,0.38641357421875,-0.18359375,0.25,0.140625,-0.021484375,-0.0078125,-0.001953125
2026-09-02T07:44:36.937247,0.524658203125,-0.3582763671875,-0.6727294921875,0.38641357421875,-0.18359375,0.25,0.140625,-0.021484375,-0.0078125,-0.001953125
2026-09-02T07:44:37.037487,0.524658203125,-0.3582763671875,-0.6727294921875,0.38641357421875,-0.18359375,0.25,0.140625,-0.021484375,-0.0078125,-0.001953125
2026-09-02T07:44:37.137085,0.524658203125,-0.3582763671875,-0.6727294921875,0.38641357421875,-0.18359375,0.25,0.140625,-0.021484375,-0.0078125,-0.001953125
2026-09-02T07:44:37.237612,0.524658203125,-0.3582763671875,-0.6727294921875,0.38641357421875,-0.18359375,0.25,0.140625,-0.021484375,-0.0078125,-0.001953125
2026-09-02T07:44:37.337891,0.524658203125,-0.3582763671875,-0.6727294921875,0.38641357421875,-0.18359375,0.25,0.140625,-0.021484375,-0.0078125,-0.001953125
2026-09-02T07:44:37.437870,0.524658203125,-0.3582763671875,-0.6727294921875,0.38641357421875,-0.18359375,0.25,0.140625,-0.021484375,-0.0078125,-0.001953125
2026-09-02T07:44:37.538017,0.524658203125,-0.3582763671875,-0.6727294921875,0.38641357421875,-0.18359375,0.25,0.140625,-0.021484375,-0.0078125,-0.001953125
2026-09-02T07:44:37.638115,0.524658203125,-0.3582763671875,-0.6727294921875,0.38641357421875,-0.18359375,0.25,0.140625,-0.021484375,-0.0078125,-0.001953125
2026-09-02T07:44:37.738339,0.524658203125,-0.3582763671875,-0.6727294921875,0.38641357421875,-0.18359375,0.25,0.140625,-0.021484375,-0.0078125,-0.001953125
2026-09-02T07:44:37.838386,0.524658203125,-0.3582763671875,-0.6727294921875,0.38641357421875,-0.18359375,0.25,0.140625,-0.021484375,-0.0078125,-0.001953125
2026-09-02T07:44:37.938702,0.524658203125,-0.3582763671875,-0.6727294921875,0.38641357421875,-0.18359375,0.25,0.140625,-0.021484375,-0.0078125,-0.001953125
2026-09-02T07:44:38.038810,0.524658203125,-0.3582763671875,-0.6727294921875,0.38641357421875,-0.18359375,0.25,0.140625,-0.021484375,-0.0078125,-0.001953125
2026-09-02T07:44:38.138897,0.524658203125,-0.3582763671875,-0.6727294921875,0.38641357421875,-0.18359375,0.25,0.140625,-0.021484375,-0.0078125,-0.001953125
2026-09-02T07:44:38.238235,0.524658203125,-0.3582763671875,-0.6727294921875,0.38641357421875,-0.18359375,0.25,0.140625,-0.021484375,-0.0078125,-0.001953125
2026-09-02T07:44:38.339196,0.524658203125,-0.3582763671875,-0.6727294921875,0.38641357421875,-0.18359375,0.25,0.140625,-0.021484375,-0.0078125,-0.001953125
2026-09-02T07:44:38.439390,0.524658203125,-0.3582763671875,-0.6727294921875,0.38641357421875,-0.18359375,0.25,0.140625,-0.021484375,-0.0078125,-0.001953125
2026-09-02T07:44:38.539446,0.524658203125,-0.3582763671875,-0.6727294921875,0.38641357421875,-0.18359375,0.25,0.140625,-0.021484375,-0.0078125,-0.001953125
2026-09-02T07:44:38.639024,0.524658203125,-0.3582763671875,-0.6727294921875,0.38641357421875,-0.18359375,0.25,0.140625,-0.021484375,-0.0078125,-0.001953125
2026-09-02T07:44:38.739678,0.524658203125,-0.3582763671875,-0.6727294921875,0.38641357421875,-0.18359375,0.25,0.140625,-0.021484375,-0.0078125,-0.001953125
2026-09-02T07:44:38.839773,0.524658203125,-0.3582763671875,-0.6727294921875,0.38641357421875,-0.18359375,0.25,0.140625,-0.021484375,-0.0078125,-0.001953125
2026-09-02T07:44:38.939951,0.524658203125,-0.3582763671875,-0.6727294921875,0.38641357421875,-0.18359375,0.25,0.140625,-0.021484375,-0.0078125,-0.001953125
2026-09-02T07:44:39.040034,0.524658203125,-0.3582763671875,-0.6727294921875,0.38641357421875,-0.18359375,0.25,0.140625,-0.021484375,-0.0078125,-0.001953125
2026-09-02T07:44:39.140192,0.524658203125,-0.3582763671875,-0.6727294921875,0.38641357421875,-0.18359375,0.25,0.140625,-0.021484375,-0.0078125,-0.001953125
2026-09-02T07:44:39.240398,0.524658203125,-0.3582763671875,-0.6727294921875,0.38641357421875,-0.18359375,0.25,0.140625,-0.021484375,-0.0078125,-0.001953125
2026-09-02T07:44:39.340609,0.524658203125,-0.3582763671875,-0.6727294921875,0.38641357421875,-0.18359375,0.25,0.140625,-0.021484375,-0.0078125,-0.001953125
2026-09-02T07:44:39.440641,0.524658203125,-0.3582763671875,-0.6727294921875,0.38641357421875,-0.18359375,0.25,0.140625,-0.021484375,-0.0078125,-0.001953125
2026-09-02T07:44:39.540797,0.524658203125,-0.3582763671875,-0.6727294921875,0.38641357421875,-0.18359375,0.25,0.140625,-0.021484375,-0.0078125,-0.001953125
2026-09-02T07:44:39.641201,0.524658203125,-0.3582763671875,-0.6727294921875,0.38641357421875,-0.18359375,0.25,0.140625,-0.021484375,-0.0078125,-0.001953125
2026-09-02T07:44:39.741032,0.524658203125,-0.3582763671875,-0.6727294921875,0.38641357421875,-0.18359375,0.25,0.140625,-0.021484375,-0.0078125,-0.001953125
2026-09-02T07:44:39.841196,0.524658203125,-0.3582763671875,-0.6727294921875,0.38641357421875,-0.18359375,0.25,0.140625,-0.021484375,-0.0078125,-0.001953125
2026-09-02T07:44:39.941371,0.524658203125,-0.3582763671875,-0.6727294921875,0.38641357421875,-0.18359375,0.25,0.140625,-0.021484375,-0.0078125,-0.001953125
2026-09-02T07:44:40.041455,0.524658203125,-0.3582763671875,-0.6727294921875,0.38641357421875,-0.18359375,0.25,0.140625,-0.021484375,-0.0078125,-0.001953125
2026-09-02T07:44:40.141525,0.524658203125,-0.3582763671875,-0.6727294921875,0.38641357421875,-0.18359375,0.25,0.140625,-0.021484375,-0.0078125,-0.001953125
2026-09-02T07:44:40.241190,0.524658203125,-0.3582763671875,-0.6727294921875,0.38641357421875,-0.18359375,0.25,0.140625,-0.021484375,-0.0078125,-0.001953125
2026-09-02T07:44:40.341804,0.524658203125,-0.3582763671875,-0.6727294921875,0.38641357421875,-0.18359375,0.25,0.140625,-0.021484375,-0.0078125,-0.001953125
2026-09-02T07:44:40.441837,0.524658203125,-0.3582763671875,-0.6727294921875,0.38641357421875,-0.18359375,0.25,0.140625,-0.021484375,-0.0078125,-0.001953125
2026-09-02T07:44:40.541993,0.524658203125,-0.3582763671875,-0.6727294921875,0.38641357421875,-0.18359375,0.25,0.140625,-0.021484375,-0.0078125,-0.001953125
2026-09-02T07:44:40.642085,0.524658203125,-0.3582763671875,-0.6727294921875,0.38641357421875,-0.18359375,0.25,0.140625,-0.021484375,-0.0078125,-0.001953125
2026-09-02T07:44:40.742374,0.524658203125,-0.3582763671875,-0.6727294921875,0.38641357421875,-0.18359375,0.25,0.140625,-0.021484375,-0.0078125,-0.001953125
2026-09-02T07:44:40.842725,0.524658203125,-0.3582763671875,-0.6727294921875,0.38641357421875,-0.18359375,0.25,0.140625,-0.021484375,-0.0078125,-0.001953125
2026-09-02T07:44:40.942580,0.524658203125,-0.3582763671875,-0.6727294921875,0.38641357421875,-0.18359375,0.25,0.140625,-0.021484375,-0.0078125,-0.001953125
2026-09-02T07:44:41.042673,0.524658203125,-0.3582763671875,-0.6727294921875,0.38641357421875,-0.18359375,0.25,0.140625,-0.021484375,-0.0078125,-0.001953125
2026-09-02T07:44:41.142793,0.524658203125,-0.3582763671875,-0.6727294921875,0.38641357421875,-0.18359375,0.25,0.140625,-0.021484375,-0.0078125,-0.001953125
2026-09-02T07:44:41.242971,0.524658203125,-0.3582763671875,-0.6727294921875,0.38641357421875,-0.18359375,0.25,0.140625,-0.021484375,-0.0078125,-0.001953125
2026-09-02T07:44:41.343102,0.524658203125,-0.3582763671875,-0.6727294921875,0.38641357421875,-0.18359375,0.25,0.140625,-0.021484375,-0.0078125,-0.001953125
2026-09-02T07:44:41.443378,0.524658203125,-0.3582763671875,-0.6727294921875,0.38641357421875,-0.18359375,0.25,0.140625,-0.021484375,-0.0078125,-0.001953125
2026-09-02T07:44:41.543288,0.524658203125,-0.3582763671875,-0.6727294921875,0.38641357421875,-0.18359375,0.25,0.140625,-0.021484375,-0.0078125,-0.001953125
2026-09-02T07:44:41.643462,0.524658203125,-0.3582763671875,-0.6727294921875,0.38641357421875,-0.18359375,0.25,0.140625,-0.021484375,-0.0078125,-0.001953125
2026-09-02T07:44:41.743024,0.524658203125,-0.3582763671875,-0.6727294921875,0.38641357421875,-0.18359375,0.25,0.140625,-0.021484375,-0.0078125,-0.001953125
2026-09-02T07:44:41.843649,0.524658203125,-0.3582763671875,-0.6727294921875,0.38641357421875,-0.18359375,0.25,0.140625,-0.021484375,-0.0078125,-0.001953125
2026-09-02T07:44:41.943713,0.524658203125,-0.3582763671875,-0.6727294921875,0.38641357421875,-0.18359375,0.25,0.140625,-0.021484375,-0.0078125,-0.001953125
2026-09-02T07:44:42.043836,0.524658203125,-0.3582763671875,-0.6727294921875,0.38641357421875,-0.18359375,0.25,0.140625,-0.021484375,-0.0078125,-0.001953125
2026-09-02T07:44:42.143989,0.524658203125,-0.3582763671875,-0.6727294921875,0.38641357421875,-0.18359375,0.25,0.140625,-0.021484375,-0.0078125,-0.001953125
2026-09-02T07:44:42.244052,0.524658203125,-0.3582763671875,-0.6727294921875,0.38641357421875,-0.18359375,0.25,0.140625,-0.021484375,-0.0078125,-0.001953125
2026-09-02T07:44:42.344243,0.524658203125,-0.3582763671875,-0.6727294921875,0.38641357421875,-0.18359375,0.25,0.140625,-0.021484375,-0.0078125,-0.001953125
2026-09-02T07:44:42.444507,0.524658203125,-0.3582763671875,-0.6727294921875,0.38641357421875,-0.18359375,0.25,0.140625,-0.021484375,-0.0078125,-0.001953125
2026-09-02T07:44:42.544493,0.524658203125,-0.3582763671875,-0.6727294921875,0.38641357421875,-0.18359375,0.25,0.140625,-0.021484375,-0.0078125,-0.001953125
2026-09-02T07:44:42.644595,0.524658203125,-0.3582763671875,-0.6727294921875,0.38641357421875,-0.18359375,0.25,0.140625,-0.021484375,-0.0078125,-0.001953125
2026-09-02T07:44:42.744750,0.524658203125,-0.3582763671875,-0.6727294921875,0.38641357421875,-0.18359375,0.25,0.140625,-0.021484375,-0.0078125,-0.001953125
2026-09-02T07:44:42.845019,0.524658203125,-0.3582763671875,-0.6727294921875,0.38641357421875,-0.18359375,0.25,0.140625,-0.021484375,-0.0078125,-0.001953125
2026-09-02T07:44:42.944999,0.524658203125,-0.3582763671875,-0.6727294921875,0.38641357421875,-0.18359375,0.25,0.140625,-0.021484375,-0.0078125,-0.001953125
2026-09-02T07:44:43.045218,0.524658203125,-0.3582763671875,-0.6727294921875,0.38641357421875,-0.18359375,0.25,0.140625,-0.021484375,-0.0078125,-0.001953125
2026-09-02T07:44:43.145276,0.524658203125,-0.3582763671875,-0.6727294921875,0.38641357421875,-0.18359375,0.25,0.140625,-0.021484375,-0.0078125,-0.001953125
2026-09-02T07:44:43.245453,0.524658203125,-0.3582763671875,-0.6727294921875,0.38641357421875,-0.18359375,0.25,0.140625,-0.021484375,-0.0078125,-0.001953125
2026-09-02T07:44:43.345514,0.524658203125,-0.3582763671875,-0.6727294921875,0.38641357421875,-0.18359375,0.25,0.140625,-0.021484375,-0.0078125,-0.001953125
2026-09-02T07:44:43.445617,0.524658203125,-0.3582763671875,-0.6727294921875,0.38641357421875,-0.18359375,0.25,0.140625,-0.021484375,-0.0078125,-0.001953125
2026-09-02T07:44:43.545793,0.524658203125,-0.3582763671875,-0.6727294921875,0.38641357421875,-0.18359375,0.25,0.140625,-0.021484375,-0.0078125,-0.001953125
2026-09-02T07:44:43.645908,0.524658203125,-0.3582763671875,-0.6727294921875,0.38641357421875,-0.18359375,0.25,0.140625,-0.021484375,-0.0078125,-0.001953125
2026-09-02T07:44:43.745980,0.524658203125,-0.3582763671875,-0.6727294921875,0.38641357421875,-0.18359375,0.25,0.140625,-0.021484375,-0.0078125,-0.001953125
2026-09-02T07:44:43.846198,0.524658203125,-0.3582763671875,-0.6727294921875,0.38641357421875,-0.18359375,0.25,0.140625,-0.021484375,-0.0078125,-0.001953125
2026-09-02T07:44:43.946266,0.524658203125,-0.3582763671875,-0.6727294921875,0.38641357421875,-0.18359375,0.25,0.140625,-0.021484375,-0.0078125,-0.001953125
2026-09-02T07:44:44.046355,0.524658203125,-0.3582763671875,-0.6727294921875,0.38641357421875,-0.18359375,0.25,0.140625,-0.021484375,-0.0078125,-0.001953125
2026-09-02T07:44:44.146547,0.524658203125,-0.3582763671875,-0.6727294921875,0.38641357421875,-0.18359375,0.25,0.140625,-0.021484375,-0.0078125,-0.001953125
2026-09-02T07:44:44.246638,0.524658203125,-0.3582763671875,-0.6727294921875,0.38641357421875,-0.18359375,0.25,0.140625,-0.021484375,-0.0078125,-0.001953125
2026-09-02T07:44:44.346790,0.524658203125,-0.3582763671875,-0.6727294921875,0.38641357421875,-0.18359375,0.25,0.140625,-0.021484375,-0.0078125,-0.001953125
2026-09-02T07:44:44.446919,0.524658203125,-0.3582763671875,-0.6727294921875,0.38641357421875,-0.18359375,0.25,0.140625,-0.021484375,-0.0078125,-0.001953125
2026-09-02T07:44:44.547020,0.524658203125,-0.3582763671875,-0.6727294921875,0.38641357421875,-0.18359375,0.25,0.140625,-0.021484375,-0.0078125,-0.001953125
2026-09-02T07:44:44.647252,0.524658203125,-0.3582763671875,-0.6727294921875,0.38641357421875,-0.18359375,0.25,0.140625,-0.021484375,-0.0078125,-0.001953125
2026-09-02T07:44:44.747299,0.524658203125,-0.3582763671875,-0.6727294921875,0.38641357421875,-0.18359375,0.25,0.140625,-0.021484375,-0.0078125,-0.001953125
2026-09-02T07:44:44.847463,0.524658203125,-0.3582763671875,-0.6727294921875,0.38641357421875,-0.18359375,0.25,0.140625,-0.021484375,-0.0078125,-0.001953125
2026-09-02T07:44:44.947451,0.524658203125,-0.3582763671875,-0.6727294921875,0.38641357421875,-0.18359375,0.25,0.140625,-0.021484375,-0.0078125,-0.001953125
2026-09-02T07:44:45.047596,0.524658203125,-0.3582763671875,-0.6727294921875,0.38641357421875,-0.18359375,0.25,0.140625,-0.021484375,-0.0078125,-0.001953125
2026-09-02T07:44:45.147710,0.524658203125,-0.3582763671875,-0.6727294921875,0.38641357421875,-0.18359375,0.25,0.140625,-0.021484375,-0.0078125,-0.001953125
2026-09-02T07:44:45.247845,0.524658203125,-0.3582763671875,-0.6727294921875,0.38641357421875,-0.18359375,0.25,0.140625,-0.021484375,-0.0078125,-0.001953125
2026-09-02T07:44:45.347932,0.524658203125,-0.3582763671875,-0.6727294921875,0.38641357421875,-0.18359375,0.25,0.140625,-0.021484375,-0.0078125,-0.001953125
2026-09-02T07:44:45.447992,0.524658203125,-0.3582763671875,-0.6727294921875,0.38641357421875,-0.18359375,0.25,0.140625,-0.021484375,-0.0078125,-0.001953125
2026-09-02T07:44:45.548138,0.524658203125,-0.3582763671875,-0.6727294921875,0.38641357421875,-0.18359375,0.25,0.140625,-0.021484375,-0.0078125,-0.001953125
2026-09-02T07:44:45.648378,0.524658203125,-0.3582763671875,-0.6727294921875,0.38641357421875,-0.18359375,0.25,0.140625,-0.021484375,-0.0078125,-0.001953125
2026-09-02T07:44:45.748437,0.524658203125,-0.3582763671875,-0.6727294921875,0.38641357421875,-0.18359375,0.25,0.140625,-0.021484375,-0.0078125,-0.001953125
2026-09-02T07:44:45.848642,0.524658203125,-0.3582763671875,-0.6727294921875,0.38641357421875,-0.18359375,0.25,0.140625,-0.021484375,-0.0078125,-0.001953125
2026-09-02T07:44:45.948627,0.524658203125,-0.3582763671875,-0.6727294921875,0.38641357421875,-0.18359375,0.25,0.140625,-0.021484375,-0.0078125,-0.001953125
2026-09-02T07:44:46.048984,0.524658203125,-0.3582763671875,-0.6727294921875,0.38641357421875,-0.18359375,0.25,0.140625,-0.021484375,-0.0078125,-0.001953125
2026-09-02T07:44:46.148901,0.524658203125,-0.3582763671875,-0.6727294921875,0.38641357421875,-0.18359375,0.25,0.140625,-0.021484375,-0.0078125,-0.001953125
2026-09-02T07:44:46.249082,0.524658203125,-0.3582763671875,-0.6727294921875,0.38641357421875,-0.18359375,0.25,0.140625,-0.021484375,-0.0078125,-0.001953125
2026-09-02T07:44:46.349150,0.524658203125,-0.3582763671875,-0.6727294921875,0.38641357421875,-0.18359375,0.25,0.140625,-0.021484375,-0.0078125,-0.001953125
2026-09-02T07:44:46.449393,0.524658203125,-0.3582763671875,-0.6727294921875,0.38641357421875,-0.18359375,0.25,0.140625,-0.021484375,-0.0078125,-0.001953125
2026-09-02T07:44:46.549458,0.524658203125,-0.3582763671875,-0.6727294921875,0.38641357421875,-0.18359375,0.25,0.140625,-0.021484375,-0.0078125,-0.001953125
2026-09-02T07:44:46.649554,0.524658203125,-0.3582763671875,-0.6727294921875,0.38641357421875,-0.18359375,0.25,0.140625,-0.021484375,-0.0078125,-0.001953125
2026-09-02T07:44:46.749706,0.524658203125,-0.3582763671875,-0.6727294921875,0.38641357421875,-0.18359375,0.25,0.140625,-0.021484375,-0.0078125,-0.001953125
2026-09-02T07:44:46.849745,0.524658203125,-0.3582763671875,-0.6727294921875,0.38641357421875,-0.18359375,0.25,0.140625,-0.021484375,-0.0078125,-0.001953125
2026-09-02T07:44:46.949878,0.524658203125,-0.3582763671875,-0.6727294921875,0.38641357421875,-0.18359375,0.25,0.140625,-0.021484375,-0.0078125,-0.001953125
2026-09-02T07:44:47.049991,0.524658203125,-0.3582763671875,-0.6727294921875,0.38641357421875,-0.18359375,0.25,0.140625,-0.021484375,-0.0078125,-0.001953125
2026-09-02T07:44:47.150146,0.524658203125,-0.3582763671875,-0.6727294921875,0.38641357421875,-0.18359375,0.25,0.140625,-0.021484375,-0.0078125,-0.001953125
2026-09-02T07:44:47.250213,0.524658203125,-0.3582763671875,-0.6727294921875,0.38641357421875,-0.18359375,0.25,0.140625,-0.021484375,-0.0078125,-0.001953125
2026-09-02T07:44:47.350442,0.524658203125,-0.3582763671875,-0.6727294921875,0.38641357421875,-0.18359375,0.25,0.140625,-0.021484375,-0.0078125,-0.001953125
2026-09-02T07:44:47.450671,0.524658203125,-0.3582763671875,-0.6727294921875,0.38641357421875,-0.18359375,0.25,0.140625,-0.021484375,-0.0078125,-0.001953125
2026-09-02T07:44:47.550716,0.524658203125,-0.3582763671875,-0.6727294921875,0.38641357421875,-0.18359375,0.25,0.140625,-0.021484375,-0.0078125,-0.001953125
2026-09-02T07:44:47.650780,0.524658203125,-0.3582763671875,-0.6727294921875,0.38641357421875,-0.18359375,0.25,0.140625,-0.021484375,-0.0078125,-0.001953125
2026-09-02T07:44:47.750931,0.524658203125,-0.3582763671875,-0.6727294921875,0.38641357421875,-0.18359375,0.25,0.140625,-0.021484375,-0.0078125,-0.001953125
2026-09-02T07:44:47.851025,0.524658203125,-0.3582763671875,-0.6727294921875,0.38641357421875,-0.18359375,0.25,0.140625,-0.021484375,-0.0078125,-0.001953125
2026-09-02T07:44:47.951223,0.524658203125,-0.3582763671875,-0.6727294921875,0.38641357421875,-0.18359375,0.25,0.140625,-0.021484375,-0.0078125,-0.001953125
2026-09-02T07:44:48.051345,0.524658203125,-0.3582763671875,-0.6727294921875,0.38641357421875,-0.18359375,0.25,0.140625,-0.021484375,-0.0078125,-0.001953125
2026-09-02T07:44:48.151459,0.524658203125,-0.3582763671875,-0.6727294921875,0.38641357421875,-0.18359375,0.25,0.140625,-0.021484375,-0.0078125,-0.001953125
2026-09-02T07:44:48.251537,0.524658203125,-0.3582763671875,-0.6727294921875,0.38641357421875,-0.18359375,0.25,0.140625,-0.021484375,-0.0078125,-0.001953125
2026-09-02T07:44:48.351708,0.524658203125,-0.3582763671875,-0.6727294921875,0.38641357421875,-0.18359375,0.25,0.140625,-0.021484375,-0.0078125,-0.001953125
2026-09-02T07:44:48.451771,0.524658203125,-0.3582763671875,-0.6727294921875,0.38641357421875,-0.18359375,0.25,0.140625,-0.021484375,-0.0078125,-0.001953125
2026-09-02T07:44:48.552006,0.524658203125,-0.3582763671875,-0.6727294921875,0.38641357421875,-0.18359375,0.25,0.140625,-0.021484375,-0.0078125,-0.001953125
2026-09-02T07:44:48.652005,0.524658203125,-0.3582763671875,-0.6727294921875,0.38641357421875,-0.18359375,0.25,0.140625,-0.021484375,-0.0078125,-0.001953125
2026-09-02T07:44:48.752171,0.524658203125,-0.3582763671875,-0.6727294921875,0.38641357421875,-0.18359375,0.25,0.140625,-0.021484375,-0.0078125,-0.001953125
2026-09-02T07:44:48.852265,0.524658203125,-0.3582763671875,-0.6727294921875,0.38641357421875,-0.18359375,0.25,0.140625,-0.021484375,-0.0078125,-0.001953125
2026-09-02T07:44:48.952409,0.524658203125,-0.3582763671875,-0.6727294921875,0.38641357421875,-0.18359375,0.25,0.140625,-0.021484375,-0.0078125,-0.001953125
2026-09-02T07:44:49.052513,0.524658203125,-0.3582763671875,-0.6727294921875,0.38641357421875,-0.18359375,0.25,0.140625,-0.021484375,-0.0078125,-0.001953125
2026-09-02T07:44:49.152671,0.524658203125,-0.3582763671875,-0.6727294921875,0.38641357421875,-0.18359375,0.25,0.140625,-0.021484375,-0.0078125,-0.001953125
2026-09-02T07:44:49.252776,0.524658203125,-0.3582763671875,-0.6727294921875,0.38641357421875,-0.18359375,0.25,0.140625,-0.021484375,-0.0078125,-0.001953125
2026-09-02T07:44:49.352875,0.524658203125,-0.3582763671875,-0.6727294921875,0.38641357421875,-0.18359375,0.25,0.140625,-0.021484375,-0.0078125,-0.001953125
2026-09-02T07:44:49.452978,0.524658203125,-0.3582763671875,-0.6727294921875,0.38641357421875,-0.18359375,0.25,0.140625,-0.021484375,-0.0078125,-0.001953125
2026-09-02T07:44:49.553133,0.524658203125,-0.3582763671875,-0.6727294921875,0.38641357421875,-0.18359375,0.25,0.140625,-0.021484375,-0.0078125,-0.001953125
2026-09-02T07:44:49.653252,0.524658203125,-0.3582763671875,-0.6727294921875,0.38641357421875,-0.18359375,0.25,0.140625,-0.021484375,-0.0078125,-0.001953125
2026-09-02T07:44:49.753416,0.524658203125,-0.3582763671875,-0.6727294921875,0.38641357421875,-0.18359375,0.25,0.140625,-0.021484375,-0.0078125,-0.001953125
2026-09-02T07:44:49.853485,0.524658203125,-0.3582763671875,-0.6727294921875,0.38641357421875,-0.18359375,0.25,0.140625,-0.021484375,-0.0078125,-0.001953125
2026-09-02T07:44:49.953704,0.524658203125,-0.3582763671875,-0.6727294921875,0.38641357421875,-0.18359375,0.25,0.140625,-0.021484375,-0.0078125,-0.001953125
2026-09-02T07:44:50.053729,0.524658203125,-0.3582763671875,-0.6727294921875,0.38641357421875,-0.18359375,0.25,0.140625,-0.021484375,-0.0078125,-0.001953125
2026-09-02T07:44:50.153903,0.524658203125,-0.3582763671875,-0.6727294921875,0.38641357421875,-0.18359375,0.25,0.140625,-0.021484375,-0.0078125,-0.001953125
2026-09-02T07:44:50.253959,0.524658203125,-0.3582763671875,-0.6727294921875,0.38641357421875,-0.18359375,0.25,0.140625,-0.021484375,-0.0078125,-0.001953125
2026-09-02T07:44:50.354118,0.524658203125,-0.3582763671875,-0.6727294921875,0.38641357421875,-0.18359375,0.25,0.140625,-0.021484375,-0.0078125,-0.001953125
2026-09-02T07:44:50.454255,0.524658203125,-0.3582763671875,-0.6727294921875,0.38641357421875,-0.18359375,0.25,0.140625,-0.021484375,-0.0078125,-0.001953125
2026-09-02T07:44:50.554429,0.524658203125,-0.3582763671875,-0.6727294921875,0.38641357421875,-0.18359375,0.25,0.140625,-0.021484375,-0.0078125,-0.001953125
2026-09-02T07:44:50.654489,0.524658203125,-0.3582763671875,-0.6727294921875,0.38641357421875,-0.18359375,0.25,0.140625,-0.021484375,-0.0078125,-0.001953125
2026-09-02T07:44:50.754619,0.524658203125,-0.3582763671875,-0.6727294921875,0.38641357421875,-0.18359375,0.25,0.140625,-0.021484375,-0.0078125,-0.001953125
2026-09-02T07:44:50.854751,0.524658203125,-0.3582763671875,-0.6727294921875,0.38641357421875,-0.18359375,0.25,0.140625,-0.021484375,-0.0078125,-0.001953125
2026-09-02T07:44:50.954866,0.524658203125,-0.3582763671875,-0.6727294921875,0.38641357421875,-0.18359375,0.25,0.140625,-0.021484375,-0.0078125,-0.001953125
2026-09-02T07:44:51.054999,0.524658203125,-0.3582763671875,-0.6727294921875,0.38641357421875,-0.18359375,0.25,0.140625,-0.021484375,-0.0078125,-0.001953125
2026-09-02T07:44:51.155189,0.524658203125,-0.3582763671875,-0.6727294921875,0.38641357421875,-0.18359375,0.25,0.140625,-0.021484375,-0.0078125,-0.001953125
2026-09-02T07:44:51.255250,0.524658203125,-0.3582763671875,-0.6727294921875,0.38641357421875,-0.18359375,0.25,0.140625,-0.021484375,-0.0078125,-0.001953125
2026-09-02T07:44:51.355439,0.524658203125,-0.3582763671875,-0.6727294921875,0.38641357421875,-0.18359375,0.25,0.140625,-0.021484375,-0.0078125,-0.001953125
2026-09-02T07:44:51.455525,0.524658203125,-0.3582763671875,-0.6727294921875,0.38641357421875,-0.18359375,0.25,0.140625,-0.021484375,-0.0078125,-0.001953125
2026-09-02T07:44:51.555732,0.524658203125,-0.3582763671875,-0.6727294921875,0.38641357421875,-0.18359375,0.25,0.140625,-0.021484375,-0.0078125,-0.001953125
2026-09-02T07:44:51.655765,0.524658203125,-0.3582763671875,-0.6727294921875,0.38641357421875,-0.18359375,0.25,0.140625,-0.021484375,-0.0078125,-0.001953125
2026-09-02T07:44:51.755934,0.524658203125,-0.3582763671875,-0.6727294921875,0.38641357421875,-0.18359375,0.25,0.140625,-0.021484375,-0.0078125,-0.001953125
2026-09-02T07:44:51.856071,0.524658203125,-0.3582763671875,-0.6727294921875,0.38641357421875,-0.18359375,0.25,0.140625,-0.021484375,-0.0078125,-0.001953125
2026-09-02T07:44:51.956178,0.524658203125,-0.3582763671875,-0.6727294921875,0.38641357421875,-0.18359375,0.25,0.140625,-0.021484375,-0.0078125,-0.001953125
2026-09-02T07:44:52.056254,0.524658203125,-0.3582763671875,-0.6727294921875,0.38641357421875,-0.18359375,0.25,0.140625,-0.021484375,-0.0078125,-0.001953125
2026-09-02T07:44:52.156386,0.524658203125,-0.3582763671875,-0.6727294921875,0.38641357421875,-0.18359375,0.25,0.140625,-0.021484375,-0.0078125,-0.001953125
2026-09-02T07:44:52.256497,0.524658203125,-0.3582763671875,-0.6727294921875,0.38641357421875,-0.18359375,0.25,0.140625,-0.021484375,-0.0078125,-0.001953125
2026-09-02T07:44:52.356701,0.524658203125,-0.3582763671875,-0.6727294921875,0.38641357421875,-0.18359375,0.25,0.140625,-0.021484375,-0.0078125,-0.001953125
2026-09-02T07:44:52.456750,0.524658203125,-0.3582763671875,-0.6727294921875,0.38641357421875,-0.18359375,0.25,0.140625,-0.021484375,-0.0078125,-0.001953125
2026-09-02T07:44:52.556811,0.524658203125,-0.3582763671875,-0.6727294921875,0.38641357421875,-0.18359375,0.25,0.140625,-0.021484375,-0.0078125,-0.001953125
2026-09-02T07:44:52.658528,0.524658203125,-0.3582763671875,-0.6727294921875,0.38641357421875,-0.18359375,0.25,0.140625,-0.021484375,-0.0078125,-0.001953125
2026-09-02T07:44:52.757076,0.524658203125,-0.3582763671875,-0.6727294921875,0.38641357421875,-0.18359375,0.25,0.140625,-0.021484375,-0.0078125,-0.001953125
2026-09-02T07:44:52.857332,0.524658203125,-0.3582763671875,-0.6727294921875,0.38641357421875,-0.18359375,0.25,0.140625,-0.021484375,-0.0078125,-0.001953125
2026-09-02T07:44:52.957460,0.524658203125,-0.3582763671875,-0.6727294921875,0.38641357421875,-0.18359375,0.25,0.140625,-0.021484375,-0.0078125,-0.001953125
2026-09-02T07:44:53.057556,0.524658203125,-0.3582763671875,-0.6727294921875,0.38641357421875,-0.18359375,0.25,0.140625,-0.021484375,-0.0078125,-0.001953125
2026-09-02T07:44:53.157586,0.524658203125,-0.3582763671875,-0.6727294921875,0.38641357421875,-0.18359375,0.25,0.140625,-0.021484375,-0.0078125,-0.001953125
2026-09-02T07:44:53.257580,0.524658203125,-0.3582763671875,-0.6727294921875,0.38641357421875,-0.18359375,0.25,0.140625,-0.021484375,-0.0078125,-0.001953125
2026-09-02T07:44:53.357801,0.524658203125,-0.3582763671875,-0.6727294921875,0.38641357421875,-0.18359375,0.25,0.140625,-0.021484375,-0.0078125,-0.001953125
2026-09-02T07:44:53.457881,0.524658203125,-0.3582763671875,-0.6727294921875,0.38641357421875,-0.18359375,0.25,0.140625,-0.021484375,-0.0078125,-0.001953125
2026-09-02T07:44:53.557963,0.524658203125,-0.3582763671875,-0.6727294921875,0.38641357421875,-0.18359375,0.25,0.140625,-0.021484375,-0.0078125,-0.001953125
2026-09-02T07:44:53.658118,0.524658203125,-0.3582763671875,-0.6727294921875,0.38641357421875,-0.18359375,0.25,0.140625,-0.021484375,-0.0078125,-0.001953125
2026-09-02T07:44:53.758196,0.524658203125,-0.3582763671875,-0.6727294921875,0.38641357421875,-0.18359375,0.25,0.140625,-0.021484375,-0.0078125,-0.001953125
2026-09-02T07:44:53.858429,0.524658203125,-0.3582763671875,-0.6727294921875,0.38641357421875,-0.18359375,0.25,0.140625,-0.021484375,-0.0078125,-0.001953125
2026-09-02T07:44:53.958460,0.524658203125,-0.3582763671875,-0.6727294921875,0.38641357421875,-0.18359375,0.25,0.140625,-0.021484375,-0.0078125,-0.001953125
2026-09-02T07:44:54.058649,0.524658203125,-0.3582763671875,-0.6727294921875,0.38641357421875,-0.18359375,0.25,0.140625,-0.021484375,-0.0078125,-0.001953125
2026-09-02T07:44:54.158678,0.524658203125,-0.3582763671875,-0.6727294921875,0.38641357421875,-0.18359375,0.25,0.140625,-0.021484375,-0.0078125,-0.001953125
2026-09-02T07:44:54.258798,0.524658203125,-0.3582763671875,-0.6727294921875,0.38641357421875,-0.18359375,0.25,0.140625,-0.021484375,-0.0078125,-0.001953125
2026-09-02T07:44:54.358911,0.524658203125,-0.3582763671875,-0.6727294921875,0.38641357421875,-0.18359375,0.25,0.140625,-0.021484375,-0.0078125,-0.001953125
2026-09-02T07:44:54.459177,0.524658203125,-0.3582763671875,-0.6727294921875,0.38641357421875,-0.18359375,0.25,0.140625,-0.021484375,-0.0078125,-0.001953125
2026-09-02T07:44:54.559369,0.524658203125,-0.3582763671875,-0.6727294921875,0.38641357421875,-0.18359375,0.25,0.140625,-0.021484375,-0.0078125,-0.001953125
2026-09-02T07:44:54.659413,0.524658203125,-0.3582763671875,-0.6727294921875,0.38641357421875,-0.18359375,0.25,0.140625,-0.021484375,-0.0078125,-0.001953125
2026-09-02T07:44:54.759501,0.524658203125,-0.3582763671875,-0.6727294921875,0.38641357421875,-0.18359375,0.25,0.140625,-0.021484375,-0.0078125,-0.001953125
2026-09-02T07:44:54.859569,0.524658203125,-0.3582763671875,-0.6727294921875,0.38641357421875,-0.18359375,0.25,0.140625,-0.021484375,-0.0078125,-0.001953125
2026-09-02T07:44:54.959686,0.524658203125,-0.3582763671875,-0.6727294921875,0.38641357421875,-0.18359375,0.25,0.140625,-0.021484375,-0.0078125,-0.001953125
2026-09-02T07:44:55.059808,0.524658203125,-0.3582763671875,-0.6727294921875,0.38641357421875,-0.18359375,0.25,0.140625,-0.021484375,-0.0078125,-0.001953125
2026-09-02T07:44:55.159865,0.524658203125,-0.3582763671875,-0.6727294921875,0.38641357421875,-0.18359375,0.25,0.140625,-0.021484375,-0.0078125,-0.001953125
2026-09-02T07:44:55.260025,0.524658203125,-0.3582763671875,-0.6727294921875,0.38641357421875,-0.18359375,0.25,0.140625,-0.021484375,-0.0078125,-0.001953125
2026-09-02T07:44:55.360104,0.524658203125,-0.3582763671875,-0.6727294921875,0.38641357421875,-0.18359375,0.25,0.140625,-0.021484375,-0.0078125,-0.001953125
2026-09-02T07:44:55.460301,0.524658203125,-0.3582763671875,-0.6727294921875,0.38641357421875,-0.18359375,0.25,0.140625,-0.021484375,-0.0078125,-0.001953125
2026-09-02T07:44:55.560485,0.524658203125,-0.3582763671875,-0.6727294921875,0.38641357421875,-0.18359375,0.25,0.140625,-0.021484375,-0.0078125,-0.001953125
2026-09-02T07:44:55.660542,0.524658203125,-0.3582763671875,-0.6727294921875,0.38641357421875,-0.18359375,0.25,0.140625,-0.021484375,-0.0078125,-0.001953125
2026-09-02T07:44:55.760674,0.524658203125,-0.3582763671875,-0.6727294921875,0.38641357421875,-0.18359375,0.25,0.140625,-0.021484375,-0.0078125,-0.001953125
2026-09-02T07:44:55.860729,0.524658203125,-0.3582763671875,-0.6727294921875,0.38641357421875,-0.18359375,0.25,0.140625,-0.021484375,-0.0078125,-0.001953125
2026-09-02T07:44:55.960873,0.524658203125,-0.3582763671875,-0.6727294921875,0.38641357421875,-0.18359375,0.25,0.140625,-0.021484375,-0.0078125,-0.001953125
2026-09-02T07:44:56.060967,0.524658203125,-0.3582763671875,-0.6727294921875,0.38641357421875,-0.18359375,0.25,0.140625,-0.021484375,-0.0078125,-0.001953125
2026-09-02T07:44:56.161052,0.524658203125,-0.3582763671875,-0.6727294921875,0.38641357421875,-0.18359375,0.25,0.140625,-0.021484375,-0.0078125,-0.001953125
2026-09-02T07:44:56.261162,0.524658203125,-0.3582763671875,-0.6727294921875,0.38641357421875,-0.18359375,0.25,0.140625,-0.021484375,-0.0078125,-0.001953125
2026-09-02T07:44:56.361401,0.524658203125,-0.3582763671875,-0.6727294921875,0.38641357421875,-0.18359375,0.25,0.140625,-0.021484375,-0.0078125,-0.001953125
2026-09-02T07:44:56.461520,0.524658203125,-0.3582763671875,-0.6727294921875,0.38641357421875,-0.18359375,0.25,0.140625,-0.021484375,-0.0078125,-0.001953125
2026-09-02T07:44:56.561586,0.524658203125,-0.3582763671875,-0.6727294921875,0.38641357421875,-0.18359375,0.25,0.140625,-0.021484375,-0.0078125,-0.001953125
2026-09-02T07:44:56.661746,0.524658203125,-0.3582763671875,-0.6727294921875,0.38641357421875,-0.18359375,0.25,0.140625,-0.021484375,-0.0078125,-0.001953125
2026-09-02T07:44:56.761819,0.524658203125,-0.3582763671875,-0.6727294921875,0.38641357421875,-0.18359375,0.25,0.140625,-0.021484375,-0.0078125,-0.001953125
2026-09-02T07:44:56.861975,0.524658203125,-0.3582763671875,-0.6727294921875,0.38641357421875,-0.18359375,0.25,0.140625,-0.021484375,-0.0078125,-0.001953125
2026-09-02T07:44:56.962093,0.524658203125,-0.3582763671875,-0.6727294921875,0.38641357421875,-0.18359375,0.25,0.140625,-0.021484375,-0.0078125,-0.001953125
2026-09-02T07:44:57.062252,0.524658203125,-0.3582763671875,-0.6727294921875,0.38641357421875,-0.18359375,0.25,0.140625,-0.021484375,-0.0078125,-0.001953125
2026-09-02T07:44:57.162430,0.524658203125,-0.3582763671875,-0.6727294921875,0.38641357421875,-0.18359375,0.25,0.140625,-0.021484375,-0.0078125,-0.001953125
2026-09-02T07:44:57.262560,0.524658203125,-0.3582763671875,-0.6727294921875,0.38641357421875,-0.18359375,0.25,0.140625,-0.021484375,-0.0078125,-0.001953125
2026-09-02T07:44:57.362663,0.524658203125,-0.3582763671875,-0.6727294921875,0.38641357421875,-0.18359375,0.25,0.140625,-0.021484375,-0.0078125,-0.001953125
2026-09-02T07:44:57.462701,0.524658203125,-0.3582763671875,-0.6727294921875,0.38641357421875,-0.18359375,0.25,0.140625,-0.021484375,-0.0078125,-0.001953125
2026-09-02T07:44:57.562826,0.524658203125,-0.3582763671875,-0.6727294921875,0.38641357421875,-0.18359375,0.25,0.140625,-0.021484375,-0.0078125,-0.001953125
2026-09-02T07:44:57.662976,0.524658203125,-0.3582763671875,-0.6727294921875,0.38641357421875,-0.18359375,0.25,0.140625,-0.021484375,-0.0078125,-0.001953125
2026-09-02T07:44:57.763209,0.524658203125,-0.3582763671875,-0.6727294921875,0.38641357421875,-0.18359375,0.25,0.140625,-0.021484375,-0.0078125,-0.001953125
2026-09-02T07:44:57.863268,0.524658203125,-0.3582763671875,-0.6727294921875,0.38641357421875,-0.18359375,0.25,0.140625,-0.021484375,-0.0078125,-0.001953125
2026-09-02T07:44:57.963350,0.524658203125,-0.3582763671875,-0.6727294921875,0.38641357421875,-0.18359375,0.25,0.140625,-0.021484375,-0.0078125,-0.001953125
2026-09-02T07:44:58.063474,0.524658203125,-0.3582763671875,-0.6727294921875,0.38641357421875,-0.18359375,0.25,0.140625,-0.021484375,-0.0078125,-0.001953125
2026-09-02T07:44:58.163589,0.524658203125,-0.3582763671875,-0.6727294921875,0.38641357421875,-0.18359375,0.25,0.140625,-0.021484375,-0.0078125,-0.001953125
2026-09-02T07:44:58.263692,0.524658203125,-0.3582763671875,-0.6727294921875,0.38641357421875,-0.18359375,0.25,0.140625,-0.021484375,-0.0078125,-0.001953125
2026-09-02T07:44:58.363921,0.524658203125,-0.3582763671875,-0.6727294921875,0.38641357421875,-0.18359375,0.25,0.140625,-0.021484375,-0.0078125,-0.001953125
2026-09-02T07:44:58.463964,0.524658203125,-0.3582763671875,-0.6727294921875,0.38641357421875,-0.18359375,0.25,0.140625,-0.021484375,-0.0078125,-0.001953125
2026-09-02T07:44:58.564065,0.524658203125,-0.3582763671875,-0.6727294921875,0.38641357421875,-0.18359375,0.25,0.140625,-0.021484375,-0.0078125,-0.001953125
2026-09-02T07:44:58.664167,0.524658203125,-0.3582763671875,-0.6727294921875,0.38641357421875,-0.18359375,0.25,0.140625,-0.021484375,-0.0078125,-0.001953125
2026-09-02T07:44:58.764340,0.524658203125,-0.3582763671875,-0.6727294921875,0.38641357421875,-0.18359375,0.25,0.140625,-0.021484375,-0.0078125,-0.001953125
2026-09-02T07:44:58.864457,0.524658203125,-0.3582763671875,-0.6727294921875,0.38641357421875,-0.18359375,0.25,0.140625,-0.021484375,-0.0078125,-0.001953125
2026-09-02T07:44:58.964556,0.524658203125,-0.3582763671875,-0.6727294921875,0.38641357421875,-0.18359375,0.25,0.140625,-0.021484375,-0.0078125,-0.001953125
2026-09-02T07:44:59.064645,0.524658203125,-0.3582763671875,-0.6727294921875,0.38641357421875,-0.18359375,0.25,0.140625,-0.021484375,-0.0078125,-0.001953125
2026-09-02T07:44:59.164730,0.524658203125,-0.3582763671875,-0.6727294921875,0.38641357421875,-0.18359375,0.25,0.140625,-0.021484375,-0.0078125,-0.001953125
2026-09-02T07:44:59.264858,0.524658203125,-0.3582763671875,-0.6727294921875,0.38641357421875,-0.18359375,0.25,0.140625,-0.021484375,-0.0078125,-0.001953125
2026-09-02T07:44:59.364966,0.524658203125,-0.3582763671875,-0.6727294921875,0.38641357421875,-0.18359375,0.25,0.140625,-0.021484375,-0.0078125,-0.001953125
2026-09-02T07:44:59.465140,0.524658203125,-0.3582763671875,-0.6727294921875,0.38641357421875,-0.18359375,0.25,0.140625,-0.021484375,-0.0078125,-0.001953125
2026-09-02T07:44:59.565231,0.524658203125,-0.3582763671875,-0.6727294921875,0.38641357421875,-0.18359375,0.25,0.140625,-0.021484375,-0.0078125,-0.001953125
2026-09-02T07:44:59.665445,0.524658203125,-0.3582763671875,-0.6727294921875,0.38641357421875,-0.18359375,0.25,0.140625,-0.021484375,-0.0078125,-0.001953125
2026-09-02T07:44:59.765515,0.524658203125,-0.3582763671875,-0.6727294921875,0.38641357421875,-0.18359375,0.25,0.140625,-0.021484375,-0.0078125,-0.001953125
2026-09-02T07:44:59.865614,0.524658203125,-0.3582763671875,-0.6727294921875,0.38641357421875,-0.18359375,0.25,0.140625,-0.021484375,-0.0078125,-0.001953125
2026-09-02T07:44:59.965773,0.524658203125,-0.3582763671875,-0.6727294921875,0.38641357421875,-0.18359375,0.25,0.140625,-0.021484375,-0.0078125,-0.001953125
2026-09-02T07:45:00.065922,0.524658203125,-0.3582763671875,-0.6727294921875,0.38641357421875,-0.18359375,0.25,0.140625,-0.021484375,-0.0078125,-0.001953125
2026-09-02T07:45:00.165961,0.524658203125,-0.3582763671875,-0.6727294921875,0.38641357421875,-0.18359375,0.25,0.140625,-0.021484375,-0.0078125,-0.001953125
2026-09-02T07:45:00.266082,0.524658203125,-0.3582763671875,-0.6727294921875,0.38641357421875,-0.18359375,0.25,0.140625,-0.021484375,-0.0078125,-0.001953125
2026-09-02T07:45:00.366202,0.524658203125,-0.3582763671875,-0.6727294921875,0.38641357421875,-0.18359375,0.25,0.140625,-0.021484375,-0.0078125,-0.001953125
2026-09-02T07:45:00.466334,0.524658203125,-0.3582763671875,-0.6727294921875,0.38641357421875,-0.18359375,0.25,0.140625,-0.021484375,-0.0078125,-0.001953125
2026-09-02T07:45:00.566467,0.524658203125,-0.3582763671875,-0.6727294921875,0.38641357421875,-0.18359375,0.25,0.140625,-0.021484375,-0.0078125,-0.001953125
2026-09-02T07:45:00.666580,0.524658203125,-0.3582763671875,-0.6727294921875,0.38641357421875,-0.18359375,0.25,0.140625,-0.021484375,-0.0078125,-0.001953125
2026-09-02T07:45:00.766648,0.524658203125,-0.3582763671875,-0.6727294921875,0.38641357421875,-0.18359375,0.25,0.140625,-0.021484375,-0.0078125,-0.001953125
2026-09-02T07:45:00.866782,0.524658203125,-0.3582763671875,-0.6727294921875,0.38641357421875,-0.18359375,0.25,0.140625,-0.021484375,-0.0078125,-0.001953125
2026-09-02T07:45:00.966872,0.524658203125,-0.3582763671875,-0.6727294921875,0.38641357421875,-0.18359375,0.25,0.140625,-0.021484375,-0.0078125,-0.001953125
2026-09-02T07:45:01.067026,0.524658203125,-0.3582763671875,-0.6727294921875,0.38641357421875,-0.18359375,0.25,0.140625,-0.021484375,-0.0078125,-0.001953125
2026-09-02T07:45:01.167234,0.524658203125,-0.3582763671875,-0.6727294921875,0.38641357421875,-0.18359375,0.25,0.140625,-0.021484375,-0.0078125,-0.001953125
2026-09-02T07:45:01.267284,0.524658203125,-0.3582763671875,-0.6727294921875,0.38641357421875,-0.18359375,0.25,0.140625,-0.021484375,-0.0078125,-0.001953125
2026-09-02T07:45:01.367415,0.524658203125,-0.3582763671875,-0.6727294921875,0.38641357421875,-0.18359375,0.25,0.140625,-0.021484375,-0.0078125,-0.001953125
2026-09-02T07:45:01.467511,0.524658203125,-0.3582763671875,-0.6727294921875,0.38641357421875,-0.18359375,0.25,0.140625,-0.021484375,-0.0078125,-0.001953125
2026-09-02T07:45:01.567670,0.524658203125,-0.3582763671875,-0.6727294921875,0.38641357421875,-0.18359375,0.25,0.140625,-0.021484375,-0.0078125,-0.001953125
2026-09-02T07:45:01.667788,0.524658203125,-0.3582763671875,-0.6727294921875,0.38641357421875,-0.18359375,0.25,0.140625,-0.021484375,-0.0078125,-0.001953125
2026-09-02T07:45:01.767873,0.524658203125,-0.3582763671875,-0.6727294921875,0.38641357421875,-0.18359375,0.25,0.140625,-0.021484375,-0.0078125,-0.001953125
2026-09-02T07:45:01.867961,0.524658203125,-0.3582763671875,-0.6727294921875,0.38641357421875,-0.18359375,0.25,0.140625,-0.021484375,-0.0078125,-0.001953125
2026-09-02T07:45:01.968172,0.524658203125,-0.3582763671875,-0.6727294921875,0.38641357421875,-0.18359375,0.25,0.140625,-0.021484375,-0.0078125,-0.001953125
2026-09-02T07:45:02.068205,0.524658203125,-0.3582763671875,-0.6727294921875,0.38641357421875,-0.18359375,0.25,0.140625,-0.021484375,-0.0078125,-0.001953125
2026-09-02T07:45:02.168330,0.524658203125,-0.3582763671875,-0.6727294921875,0.38641357421875,-0.18359375,0.25,0.140625,-0.021484375,-0.0078125,-0.001953125
2026-09-02T07:45:02.268463,0.524658203125,-0.3582763671875,-0.6727294921875,0.38641357421875,-0.18359375,0.25,0.140625,-0.021484375,-0.0078125,-0.001953125
2026-09-02T07:45:02.368526,0.524658203125,-0.3582763671875,-0.6727294921875,0.38641357421875,-0.18359375,0.25,0.140625,-0.021484375,-0.0078125,-0.001953125
2026-09-02T07:45:02.468750,0.524658203125,-0.3582763671875,-0.6727294921875,0.38641357421875,-0.18359375,0.25,0.140625,-0.021484375,-0.0078125,-0.001953125
2026-09-02T07:45:02.568840,0.524658203125,-0.3582763671875,-0.6727294921875,0.38641357421875,-0.18359375,0.25,0.140625,-0.021484375,-0.0078125,-0.001953125
2026-09-02T07:45:02.668968,0.524658203125,-0.3582763671875,-0.6727294921875,0.38641357421875,-0.18359375,0.25,0.140625,-0.021484375,-0.0078125,-0.001953125
2026-09-02T07:45:02.769102,0.524658203125,-0.3582763671875,-0.6727294921875,0.38641357421875,-0.18359375,0.25,0.140625,-0.021484375,-0.0078125,-0.001953125
2026-09-02T07:45:02.869215,0.524658203125,-0.3582763671875,-0.6727294921875,0.38641357421875,-0.18359375,0.25,0.140625,-0.021484375,-0.0078125,-0.001953125
2026-09-02T07:45:02.969550,0.524658203125,-0.3582763671875,-0.6727294921875,0.38641357421875,-0.18359375,0.25,0.140625,-0.021484375,-0.0078125,-0.001953125
2026-09-02T07:45:03.069532,0.524658203125,-0.3582763671875,-0.6727294921875,0.38641357421875,-0.18359375,0.25,0.140625,-0.021484375,-0.0078125,-0.001953125
2026-09-02T07:45:03.169691,0.524658203125,-0.3582763671875,-0.6727294921875,0.38641357421875,-0.18359375,0.25,0.140625,-0.021484375,-0.0078125,-0.001953125
2026-09-02T07:45:03.269693,0.524658203125,-0.3582763671875,-0.6727294921875,0.38641357421875,-0.18359375,0.25,0.140625,-0.021484375,-0.0078125,-0.001953125
2026-09-02T07:45:03.369826,0.524658203125,-0.3582763671875,-0.6727294921875,0.38641357421875,-0.18359375,0.25,0.140625,-0.021484375,-0.0078125,-0.001953125
2026-09-02T07:45:03.469928,0.524658203125,-0.3582763671875,-0.6727294921875,0.38641357421875,-0.18359375,0.25,0.140625,-0.021484375,-0.0078125,-0.001953125
2026-09-02T07:45:03.570108,0.524658203125,-0.3582763671875,-0.6727294921875,0.38641357421875,-0.18359375,0.25,0.140625,-0.021484375,-0.0078125,-0.001953125
2026-09-02T07:45:03.670190,0.524658203125,-0.3582763671875,-0.6727294921875,0.38641357421875,-0.18359375,0.25,0.140625,-0.021484375,-0.0078125,-0.001953125
2026-09-02T07:45:03.770573,0.524658203125,-0.3582763671875,-0.6727294921875,0.38641357421875,-0.18359375,0.25,0.140625,-0.021484375,-0.0078125,-0.001953125
2026-09-02T07:45:03.870628,0.524658203125,-0.3582763671875,-0.6727294921875,0.38641357421875,-0.18359375,0.25,0.140625,-0.021484375,-0.0078125,-0.001953125
2026-09-02T07:45:03.970819,0.524658203125,-0.3582763671875,-0.6727294921875,0.38641357421875,-0.18359375,0.25,0.140625,-0.021484375,-0.0078125,-0.001953125
2026-09-02T07:45:04.070866,0.524658203125,-0.3582763671875,-0.6727294921875,0.38641357421875,-0.18359375,0.25,0.140625,-0.021484375,-0.0078125,-0.001953125
2026-09-02T07:45:04.170857,0.524658203125,-0.3582763671875,-0.6727294921875,0.38641357421875,-0.18359375,0.25,0.140625,-0.021484375,-0.0078125,-0.001953125
2026-09-02T07:45:04.271038,0.524658203125,-0.3582763671875,-0.6727294921875,0.38641357421875,-0.18359375,0.25,0.140625,-0.021484375,-0.0078125,-0.001953125
2026-09-02T07:45:04.371255,0.524658203125,-0.3582763671875,-0.6727294921875,0.38641357421875,-0.18359375,0.25,0.140625,-0.021484375,-0.0078125,-0.001953125
2026-09-02T07:45:04.471340,0.524658203125,-0.3582763671875,-0.6727294921875,0.38641357421875,-0.18359375,0.25,0.140625,-0.021484375,-0.0078125,-0.001953125
2026-09-02T07:45:04.571476,0.524658203125,-0.3582763671875,-0.6727294921875,0.38641357421875,-0.18359375,0.25,0.140625,-0.021484375,-0.0078125,-0.001953125
2026-09-02T07:45:04.671572,0.524658203125,-0.3582763671875,-0.6727294921875,0.38641357421875,-0.18359375,0.25,0.140625,-0.021484375,-0.0078125,-0.001953125
2026-09-02T07:45:04.771725,0.524658203125,-0.3582763671875,-0.6727294921875,0.38641357421875,-0.18359375,0.25,0.140625,-0.021484375,-0.0078125,-0.001953125
2026-09-02T07:45:04.871841,0.524658203125,-0.3582763671875,-0.6727294921875,0.38641357421875,-0.18359375,0.25,0.140625,-0.021484375,-0.0078125,-0.001953125
2026-09-02T07:45:04.972109,0.524658203125,-0.3582763671875,-0.6727294921875,0.38641357421875,-0.18359375,0.25,0.140625,-0.021484375,-0.0078125,-0.001953125
2026-09-02T07:45:05.072044,0.524658203125,-0.3582763671875,-0.6727294921875,0.38641357421875,-0.18359375,0.25,0.140625,-0.021484375,-0.0078125,-0.001953125
2026-09-02T07:45:05.172191,0.524658203125,-0.3582763671875,-0.6727294921875,0.38641357421875,-0.18359375,0.25,0.140625,-0.021484375,-0.0078125,-0.001953125
2026-09-02T07:45:05.272235,0.524658203125,-0.3582763671875,-0.6727294921875,0.38641357421875,-0.18359375,0.25,0.140625,-0.021484375,-0.0078125,-0.001953125
2026-09-02T07:45:05.372387,0.524658203125,-0.3582763671875,-0.6727294921875,0.38641357421875,-0.18359375,0.25,0.140625,-0.021484375,-0.0078125,-0.001953125
2026-09-02T07:45:05.472509,0.524658203125,-0.3582763671875,-0.6727294921875,0.38641357421875,-0.18359375,0.25,0.140625,-0.021484375,-0.0078125,-0.001953125
2026-09-02T07:45:05.572641,0.524658203125,-0.3582763671875,-0.6727294921875,0.38641357421875,-0.18359375,0.25,0.140625,-0.021484375,-0.0078125,-0.001953125
2026-09-02T07:45:05.672805,0.524658203125,-0.3582763671875,-0.6727294921875,0.38641357421875,-0.18359375,0.25,0.140625,-0.021484375,-0.0078125,-0.001953125
2026-09-02T07:45:05.772941,0.524658203125,-0.3582763671875,-0.6727294921875,0.38641357421875,-0.18359375,0.25,0.140625,-0.021484375,-0.0078125,-0.001953125
2026-09-02T07:45:05.873183,0.524658203125,-0.3582763671875,-0.6727294921875,0.38641357421875,-0.18359375,0.25,0.140625,-0.021484375,-0.0078125,-0.001953125
2026-09-02T07:45:05.973623,0.524658203125,-0.3582763671875,-0.6727294921875,0.38641357421875,-0.18359375,0.25,0.140625,-0.021484375,-0.0078125,-0.001953125
2026-09-02T07:45:06.073763,0.524658203125,-0.3582763671875,-0.6727294921875,0.38641357421875,-0.18359375,0.25,0.140625,-0.021484375,-0.0078125,-0.001953125
2026-09-02T07:45:06.174341,0.524658203125,-0.3582763671875,-0.6727294921875,0.38641357421875,-0.18359375,0.25,0.140625,-0.021484375,-0.0078125,-0.001953125
2026-09-02T07:45:06.273887,0.524658203125,-0.3582763671875,-0.6727294921875,0.38641357421875,-0.18359375,0.25,0.140625,-0.021484375,-0.0078125,-0.001953125
2026-09-02T07:45:06.374121,0.524658203125,-0.3582763671875,-0.6727294921875,0.38641357421875,-0.18359375,0.25,0.140625,-0.021484375,-0.0078125,-0.001953125
2026-09-02T07:45:06.474165,0.524658203125,-0.3582763671875,-0.6727294921875,0.38641357421875,-0.18359375,0.25,0.140625,-0.021484375,-0.0078125,-0.001953125
2026-09-02T07:45:06.574380,0.524658203125,-0.3582763671875,-0.6727294921875,0.38641357421875,-0.18359375,0.25,0.140625,-0.021484375,-0.0078125,-0.001953125
2026-09-02T07:45:06.674558,0.524658203125,-0.3582763671875,-0.6727294921875,0.38641357421875,-0.18359375,0.25,0.140625,-0.021484375,-0.0078125,-0.001953125
2026-09-02T07:45:06.774718,0.524658203125,-0.3582763671875,-0.6727294921875,0.38641357421875,-0.18359375,0.25,0.140625,-0.021484375,-0.0078125,-0.001953125
2026-09-02T07:45:06.874936,0.524658203125,-0.3582763671875,-0.6727294921875,0.38641357421875,-0.18359375,0.25,0.140625,-0.021484375,-0.0078125,-0.001953125
2026-09-02T07:45:06.975003,0.524658203125,-0.3582763671875,-0.6727294921875,0.38641357421875,-0.18359375,0.25,0.140625,-0.021484375,-0.0078125,-0.001953125
2026-09-02T07:45:07.075232,0.524658203125,-0.3582763671875,-0.6727294921875,0.38641357421875,-0.18359375,0.25,0.140625,-0.021484375,-0.0078125,-0.001953125
2026-09-02T07:45:07.175354,0.524658203125,-0.3582763671875,-0.6727294921875,0.38641357421875,-0.18359375,0.25,0.140625,-0.021484375,-0.0078125,-0.001953125
2026-09-02T07:45:07.275609,0.524658203125,-0.3582763671875,-0.6727294921875,0.38641357421875,-0.18359375,0.25,0.140625,-0.021484375,-0.0078125,-0.001953125
2026-09-02T07:45:07.375700,0.524658203125,-0.3582763671875,-0.6727294921875,0.38641357421875,-0.18359375,0.25,0.140625,-0.021484375,-0.0078125,-0.001953125
2026-09-02T07:45:07.475909,0.524658203125,-0.3582763671875,-0.6727294921875,0.38641357421875,-0.18359375,0.25,0.140625,-0.021484375,-0.0078125,-0.001953125
2026-09-02T07:45:07.576040,0.524658203125,-0.3582763671875,-0.6727294921875,0.38641357421875,-0.18359375,0.25,0.140625,-0.021484375,-0.0078125,-0.001953125
2026-09-02T07:45:07.676230,0.524658203125,-0.3582763671875,-0.6727294921875,0.38641357421875,-0.18359375,0.25,0.140625,-0.021484375,-0.0078125,-0.001953125
2026-09-02T07:45:07.776321,0.524658203125,-0.3582763671875,-0.6727294921875,0.38641357421875,-0.18359375,0.25,0.140625,-0.021484375,-0.0078125,-0.001953125
2026-09-02T07:45:07.876531,0.524658203125,-0.3582763671875,-0.6727294921875,0.38641357421875,-0.18359375,0.25,0.140625,-0.021484375,-0.0078125,-0.001953125
2026-09-02T07:45:07.976628,0.524658203125,-0.3582763671875,-0.6727294921875,0.38641357421875,-0.18359375,0.25,0.140625,-0.021484375,-0.0078125,-0.001953125
2026-09-02T07:45:08.076781,0.524658203125,-0.3582763671875,-0.6727294921875,0.38641357421875,-0.18359375,0.25,0.140625,-0.021484375,-0.0078125,-0.001953125
2026-09-02T07:45:08.176967,0.524658203125,-0.3582763671875,-0.6727294921875,0.38641357421875,-0.18359375,0.25,0.140625,-0.021484375,-0.0078125,-0.001953125
2026-09-02T07:45:08.277090,0.524658203125,-0.3582763671875,-0.6727294921875,0.38641357421875,-0.18359375,0.25,0.140625,-0.021484375,-0.0078125,-0.001953125
2026-09-02T07:45:08.377227,0.524658203125,-0.3582763671875,-0.6727294921875,0.38641357421875,-0.18359375,0.25,0.140625,-0.021484375,-0.0078125,-0.001953125
2026-09-02T07:45:08.477466,0.524658203125,-0.3582763671875,-0.6727294921875,0.38641357421875,-0.18359375,0.25,0.140625,-0.021484375,-0.0078125,-0.001953125
2026-09-02T07:45:08.577577,0.524658203125,-0.3582763671875,-0.6727294921875,0.38641357421875,-0.18359375,0.25,0.140625,-0.021484375,-0.0078125,-0.001953125
2026-09-02T07:45:08.677781,0.524658203125,-0.3582763671875,-0.6727294921875,0.38641357421875,-0.18359375,0.25,0.140625,-0.021484375,-0.0078125,-0.001953125
2026-09-02T07:45:08.777907,0.524658203125,-0.3582763671875,-0.6727294921875,0.38641357421875,-0.18359375,0.25,0.140625,-0.021484375,-0.0078125,-0.001953125
2026-09-02T07:45:08.878135,0.524658203125,-0.3582763671875,-0.6727294921875,0.38641357421875,-0.18359375,0.25,0.140625,-0.021484375,-0.0078125,-0.001953125
2026-09-02T07:45:08.978204,0.524658203125,-0.3582763671875,-0.6727294921875,0.38641357421875,-0.18359375,0.25,0.140625,-0.021484375,-0.0078125,-0.001953125
2026-09-02T07:45:09.078350,0.524658203125,-0.3582763671875,-0.6727294921875,0.38641357421875,-0.18359375,0.25,0.140625,-0.021484375,-0.0078125,-0.001953125
2026-09-02T07:45:09.178533,0.524658203125,-0.3582763671875,-0.6727294921875,0.38641357421875,-0.18359375,0.25,0.140625,-0.021484375,-0.0078125,-0.001953125
2026-09-02T07:45:09.278686,0.524658203125,-0.3582763671875,-0.6727294921875,0.38641357421875,-0.18359375,0.25,0.140625,-0.021484375,-0.0078125,-0.001953125
2026-09-02T07:45:09.378748,0.524658203125,-0.3582763671875,-0.6727294921875,0.38641357421875,-0.18359375,0.25,0.140625,-0.021484375,-0.0078125,-0.001953125
2026-09-02T07:45:09.478938,0.524658203125,-0.3582763671875,-0.6727294921875,0.38641357421875,-0.18359375,0.25,0.140625,-0.021484375,-0.0078125,-0.001953125
2026-09-02T07:45:09.579010,0.524658203125,-0.3582763671875,-0.6727294921875,0.38641357421875,-0.18359375,0.25,0.140625,-0.021484375,-0.0078125,-0.001953125
2026-09-02T07:45:09.679267,0.524658203125,-0.3582763671875,-0.6727294921875,0.38641357421875,-0.18359375,0.25,0.140625,-0.021484375,-0.0078125,-0.001953125
2026-09-02T07:45:09.779302,0.524658203125,-0.3582763671875,-0.6727294921875,0.38641357421875,-0.18359375,0.25,0.140625,-0.021484375,-0.0078125,-0.001953125
2026-09-02T07:45:09.879440,0.524658203125,-0.3582763671875,-0.6727294921875,0.38641357421875,-0.18359375,0.25,0.140625,-0.021484375,-0.0078125,-0.001953125
2026-09-02T07:45:09.979532,0.524658203125,-0.3582763671875,-0.6727294921875,0.38641357421875,-0.18359375,0.25,0.140625,-0.021484375,-0.0078125,-0.001953125
2026-09-02T07:45:10.079649,0.524658203125,-0.3582763671875,-0.6727294921875,0.38641357421875,-0.18359375,0.25,0.140625,-0.021484375,-0.0078125,-0.001953125
2026-09-02T07:45:10.179745,0.524658203125,-0.3582763671875,-0.6727294921875,0.38641357421875,-0.18359375,0.25,0.140625,-0.021484375,-0.0078125,-0.001953125
2026-09-02T07:45:10.279902,0.524658203125,-0.3582763671875,-0.6727294921875,0.38641357421875,-0.18359375,0.25,0.140625,-0.021484375,-0.0078125,-0.001953125
2026-09-02T07:45:10.380024,0.524658203125,-0.3582763671875,-0.6727294921875,0.38641357421875,-0.18359375,0.25,0.140625,-0.021484375,-0.0078125,-0.001953125
2026-09-02T07:45:10.480194,0.524658203125,-0.3582763671875,-0.6727294921875,0.38641357421875,-0.18359375,0.25,0.140625,-0.021484375,-0.0078125,-0.001953125
2026-09-02T07:45:10.580265,0.524658203125,-0.3582763671875,-0.6727294921875,0.38641357421875,-0.18359375,0.25,0.140625,-0.021484375,-0.0078125,-0.001953125
2026-09-02T07:45:10.680462,0.524658203125,-0.3582763671875,-0.6727294921875,0.38641357421875,-0.18359375,0.25,0.140625,-0.021484375,-0.0078125,-0.001953125
2026-09-02T07:45:10.780580,0.524658203125,-0.3582763671875,-0.6727294921875,0.38641357421875,-0.18359375,0.25,0.140625,-0.021484375,-0.0078125,-0.001953125
2026-09-02T07:45:10.880694,0.524658203125,-0.3582763671875,-0.6727294921875,0.38641357421875,-0.18359375,0.25,0.140625,-0.021484375,-0.0078125,-0.001953125
2026-09-02T07:45:10.980816,0.524658203125,-0.3582763671875,-0.6727294921875,0.38641357421875,-0.18359375,0.25,0.140625,-0.021484375,-0.0078125,-0.001953125
2026-09-02T07:45:11.080914,0.524658203125,-0.3582763671875,-0.6727294921875,0.38641357421875,-0.18359375,0.25,0.140625,-0.021484375,-0.0078125,-0.001953125
2026-09-02T07:45:11.181099,0.524658203125,-0.3582763671875,-0.6727294921875,0.38641357421875,-0.18359375,0.25,0.140625,-0.021484375,-0.0078125,-0.001953125
2026-09-02T07:45:11.281211,0.524658203125,-0.3582763671875,-0.6727294921875,0.38641357421875,-0.18359375,0.25,0.140625,-0.021484375,-0.0078125,-0.001953125
2026-09-02T07:45:11.381367,0.524658203125,-0.3582763671875,-0.6727294921875,0.38641357421875,-0.18359375,0.25,0.140625,-0.021484375,-0.0078125,-0.001953125
2026-09-02T07:45:11.481483,0.524658203125,-0.3582763671875,-0.6727294921875,0.38641357421875,-0.18359375,0.25,0.140625,-0.021484375,-0.0078125,-0.001953125
2026-09-02T07:45:11.581576,0.524658203125,-0.3582763671875,-0.6727294921875,0.38641357421875,-0.18359375,0.25,0.140625,-0.021484375,-0.0078125,-0.001953125
2026-09-02T07:45:11.681816,0.524658203125,-0.3582763671875,-0.6727294921875,0.38641357421875,-0.18359375,0.25,0.140625,-0.021484375,-0.0078125,-0.001953125
2026-09-02T07:45:11.781869,0.524658203125,-0.3582763671875,-0.6727294921875,0.38641357421875,-0.18359375,0.25,0.140625,-0.021484375,-0.0078125,-0.001953125
2026-09-02T07:45:11.881956,0.524658203125,-0.3582763671875,-0.6727294921875,0.38641357421875,-0.18359375,0.25,0.140625,-0.021484375,-0.0078125,-0.001953125
2026-09-02T07:45:11.982081,0.524658203125,-0.3582763671875,-0.6727294921875,0.38641357421875,-0.18359375,0.25,0.140625,-0.021484375,-0.0078125,-0.001953125
2026-09-02T07:45:12.082160,0.524658203125,-0.3582763671875,-0.6727294921875,0.38641357421875,-0.18359375,0.25,0.140625,-0.021484375,-0.0078125,-0.001953125
2026-09-02T07:45:12.182264,0.524658203125,-0.3582763671875,-0.6727294921875,0.38641357421875,-0.18359375,0.25,0.140625,-0.021484375,-0.0078125,-0.001953125
2026-09-02T07:45:12.282399,0.524658203125,-0.3582763671875,-0.6727294921875,0.38641357421875,-0.18359375,0.25,0.140625,-0.021484375,-0.0078125,-0.001953125
2026-09-02T07:45:12.382194,0.524658203125,-0.3582763671875,-0.6727294921875,0.38641357421875,-0.18359375,0.25,0.140625,-0.021484375,-0.0078125,-0.001953125
2026-09-02T07:45:12.482805,0.524658203125,-0.3582763671875,-0.6727294921875,0.38641357421875,-0.18359375,0.25,0.140625,-0.021484375,-0.0078125,-0.001953125
2026-09-02T07:45:12.582870,0.524658203125,-0.3582763671875,-0.6727294921875,0.38641357421875,-0.18359375,0.25,0.140625,-0.021484375,-0.0078125,-0.001953125
2026-09-02T07:45:12.682910,0.524658203125,-0.3582763671875,-0.6727294921875,0.38641357421875,-0.18359375,0.25,0.140625,-0.021484375,-0.0078125,-0.001953125
2026-09-02T07:45:12.783296,0.524658203125,-0.3582763671875,-0.6727294921875,0.38641357421875,-0.18359375,0.25,0.140625,-0.021484375,-0.0078125,-0.001953125
2026-09-02T07:45:12.883246,0.524658203125,-0.3582763671875,-0.6727294921875,0.38641357421875,-0.18359375,0.25,0.140625,-0.021484375,-0.0078125,-0.001953125
2026-09-02T07:45:12.983507,0.524658203125,-0.3582763671875,-0.6727294921875,0.38641357421875,-0.18359375,0.25,0.140625,-0.021484375,-0.0078125,-0.001953125
2026-09-02T07:45:13.083479,0.524658203125,-0.3582763671875,-0.6727294921875,0.38641357421875,-0.18359375,0.25,0.140625,-0.021484375,-0.0078125,-0.001953125
2026-09-02T07:45:13.183581,0.524658203125,-0.3582763671875,-0.6727294921875,0.38641357421875,-0.18359375,0.25,0.140625,-0.021484375,-0.0078125,-0.001953125
2026-09-02T07:45:13.283682,0.524658203125,-0.3582763671875,-0.6727294921875,0.38641357421875,-0.18359375,0.25,0.140625,-0.021484375,-0.0078125,-0.001953125
2026-09-02T07:45:13.383530,0.524658203125,-0.3582763671875,-0.6727294921875,0.38641357421875,-0.18359375,0.25,0.140625,-0.021484375,-0.0078125,-0.001953125
2026-09-02T07:45:13.483961,0.524658203125,-0.3582763671875,-0.6727294921875,0.38641357421875,-0.18359375,0.25,0.140625,-0.021484375,-0.0078125,-0.001953125
2026-09-02T07:45:13.584054,0.524658203125,-0.3582763671875,-0.6727294921875,0.38641357421875,-0.18359375,0.25,0.140625,-0.021484375,-0.0078125,-0.001953125
2026-09-02T07:45:13.684163,0.524658203125,-0.3582763671875,-0.6727294921875,0.38641357421875,-0.18359375,0.25,0.140625,-0.021484375,-0.0078125,-0.001953125
2026-09-02T07:45:13.784293,0.524658203125,-0.3582763671875,-0.6727294921875,0.38641357421875,-0.18359375,0.25,0.140625,-0.021484375,-0.0078125,-0.001953125
2026-09-02T07:45:13.884507,0.524658203125,-0.3582763671875,-0.6727294921875,0.38641357421875,-0.18359375,0.25,0.140625,-0.021484375,-0.0078125,-0.001953125
2026-09-02T07:45:13.984668,0.524658203125,-0.3582763671875,-0.6727294921875,0.38641357421875,-0.18359375,0.25,0.140625,-0.021484375,-0.0078125,-0.001953125
2026-09-02T07:45:14.084647,0.524658203125,-0.3582763671875,-0.6727294921875,0.38641357421875,-0.18359375,0.25,0.140625,-0.021484375,-0.0078125,-0.001953125
2026-09-02T07:45:14.184855,0.524658203125,-0.3582763671875,-0.6727294921875,0.38641357421875,-0.18359375,0.25,0.140625,-0.021484375,-0.0078125,-0.001953125
2026-09-02T07:45:14.284891,0.524658203125,-0.3582763671875,-0.6727294921875,0.38641357421875,-0.18359375,0.25,0.140625,-0.021484375,-0.0078125,-0.001953125
2026-09-02T07:45:14.384769,0.524658203125,-0.3582763671875,-0.6727294921875,0.38641357421875,-0.18359375,0.25,0.140625,-0.021484375,-0.0078125,-0.001953125
2026-09-02T07:45:14.485055,0.524658203125,-0.3582763671875,-0.6727294921875,0.38641357421875,-0.18359375,0.25,0.140625,-0.021484375,-0.0078125,-0.001953125
2026-09-02T07:45:14.585243,0.524658203125,-0.3582763671875,-0.6727294921875,0.38641357421875,-0.18359375,0.25,0.140625,-0.021484375,-0.0078125,-0.001953125
2026-09-02T07:45:14.685398,0.524658203125,-0.3582763671875,-0.6727294921875,0.38641357421875,-0.18359375,0.25,0.140625,-0.021484375,-0.0078125,-0.001953125
2026-09-02T07:45:14.785523,0.524658203125,-0.3582763671875,-0.6727294921875,0.38641357421875,-0.18359375,0.25,0.140625,-0.021484375,-0.0078125,-0.001953125
2026-09-02T07:45:14.885623,0.524658203125,-0.3582763671875,-0.6727294921875,0.38641357421875,-0.18359375,0.25,0.140625,-0.021484375,-0.0078125,-0.001953125
2026-09-02T07:45:14.985689,0.524658203125,-0.3582763671875,-0.6727294921875,0.38641357421875,-0.18359375,0.25,0.140625,-0.021484375,-0.0078125,-0.001953125
2026-09-02T07:45:15.085794,0.524658203125,-0.3582763671875,-0.6727294921875,0.38641357421875,-0.18359375,0.25,0.140625,-0.021484375,-0.0078125,-0.001953125
2026-09-02T07:45:15.185937,0.524658203125,-0.3582763671875,-0.6727294921875,0.38641357421875,-0.18359375,0.25,0.140625,-0.021484375,-0.0078125,-0.001953125
2026-09-02T07:45:15.286023,0.524658203125,-0.3582763671875,-0.6727294921875,0.38641357421875,-0.18359375,0.25,0.140625,-0.021484375,-0.0078125,-0.001953125
2026-09-02T07:45:15.386158,0.524658203125,-0.3582763671875,-0.6727294921875,0.38641357421875,-0.18359375,0.25,0.140625,-0.021484375,-0.0078125,-0.001953125
2026-09-02T07:45:15.486247,0.524658203125,-0.3582763671875,-0.6727294921875,0.38641357421875,-0.18359375,0.25,0.140625,-0.021484375,-0.0078125,-0.001953125
2026-09-02T07:45:15.586158,0.524658203125,-0.3582763671875,-0.6727294921875,0.38641357421875,-0.18359375,0.25,0.140625,-0.021484375,-0.0078125,-0.001953125
2026-09-02T07:45:15.686600,0.524658203125,-0.3582763671875,-0.6727294921875,0.38641357421875,-0.18359375,0.25,0.140625,-0.021484375,-0.0078125,-0.001953125
2026-09-02T07:45:15.786760,0.524658203125,-0.3582763671875,-0.6727294921875,0.38641357421875,-0.18359375,0.25,0.140625,-0.021484375,-0.0078125,-0.001953125
2026-09-02T07:45:15.886824,0.524658203125,-0.3582763671875,-0.6727294921875,0.38641357421875,-0.18359375,0.25,0.140625,-0.021484375,-0.0078125,-0.001953125
2026-09-02T07:45:15.987881,0.524658203125,-0.3582763671875,-0.6727294921875,0.38641357421875,-0.18359375,0.25,0.140625,-0.021484375,-0.0078125,-0.001953125
2026-09-02T07:45:16.086956,0.524658203125,-0.3582763671875,-0.6727294921875,0.38641357421875,-0.18359375,0.25,0.140625,-0.021484375,-0.0078125,-0.001953125
2026-09-02T07:45:16.187207,0.524658203125,-0.3582763671875,-0.6727294921875,0.38641357421875,-0.18359375,0.25,0.140625,-0.021484375,-0.0078125,-0.001953125
2026-09-02T07:45:16.287246,0.524658203125,-0.3582763671875,-0.6727294921875,0.38641357421875,-0.18359375,0.25,0.140625,-0.021484375,-0.0078125,-0.001953125
2026-09-02T07:45:16.387486,0.524658203125,-0.3582763671875,-0.6727294921875,0.38641357421875,-0.18359375,0.25,0.140625,-0.021484375,-0.0078125,-0.001953125
2026-09-02T07:45:16.487556,0.524658203125,-0.3582763671875,-0.6727294921875,0.38641357421875,-0.18359375,0.25,0.140625,-0.021484375,-0.0078125,-0.001953125
2026-09-02T07:45:16.587491,0.524658203125,-0.3582763671875,-0.6727294921875,0.38641357421875,-0.18359375,0.25,0.140625,-0.021484375,-0.0078125,-0.001953125
2026-09-02T07:45:16.688091,0.524658203125,-0.3582763671875,-0.6727294921875,0.38641357421875,-0.18359375,0.25,0.140625,-0.021484375,-0.0078125,-0.001953125
2026-09-02T07:45:16.788200,0.524658203125,-0.3582763671875,-0.6727294921875,0.38641357421875,-0.18359375,0.25,0.140625,-0.021484375,-0.0078125,-0.001953125
2026-09-02T07:45:16.888244,0.524658203125,-0.3582763671875,-0.6727294921875,0.38641357421875,-0.18359375,0.25,0.140625,-0.021484375,-0.0078125,-0.001953125
2026-09-02T07:45:16.988248,0.524658203125,-0.3582763671875,-0.6727294921875,0.38641357421875,-0.18359375,0.25,0.140625,-0.021484375,-0.0078125,-0.001953125
2026-09-02T07:45:17.088459,0.524658203125,-0.3582763671875,-0.6727294921875,0.38641357421875,-0.18359375,0.25,0.140625,-0.021484375,-0.0078125,-0.001953125
2026-09-02T07:45:17.188580,0.524658203125,-0.3582763671875,-0.6727294921875,0.38641357421875,-0.18359375,0.25,0.140625,-0.021484375,-0.0078125,-0.001953125
2026-09-02T07:45:17.288596,0.524658203125,-0.3582763671875,-0.6727294921875,0.38641357421875,-0.18359375,0.25,0.140625,-0.021484375,-0.0078125,-0.001953125
2026-09-02T07:45:17.388754,0.524658203125,-0.3582763671875,-0.6727294921875,0.38641357421875,-0.18359375,0.25,0.140625,-0.021484375,-0.0078125,-0.001953125
2026-09-02T07:45:17.488924,0.524658203125,-0.3582763671875,-0.6727294921875,0.38641357421875,-0.18359375,0.25,0.140625,-0.021484375,-0.0078125,-0.001953125
2026-09-02T07:45:17.589160,0.524658203125,-0.3582763671875,-0.6727294921875,0.38641357421875,-0.18359375,0.25,0.140625,-0.021484375,-0.0078125,-0.001953125
2026-09-02T07:45:17.689104,0.524658203125,-0.3582763671875,-0.6727294921875,0.38641357421875,-0.18359375,0.25,0.140625,-0.021484375,-0.0078125,-0.001953125
2026-09-02T07:45:17.789474,0.524658203125,-0.3582763671875,-0.6727294921875,0.38641357421875,-0.18359375,0.25,0.140625,-0.021484375,-0.0078125,-0.001953125
2026-09-02T07:45:17.889316,0.524658203125,-0.3582763671875,-0.6727294921875,0.38641357421875,-0.18359375,0.25,0.140625,-0.021484375,-0.0078125,-0.001953125
2026-09-02T07:45:17.989734,0.524658203125,-0.3582763671875,-0.6727294921875,0.38641357421875,-0.18359375,0.25,0.140625,-0.021484375,-0.0078125,-0.001953125
2026-09-02T07:45:18.089597,0.524658203125,-0.3582763671875,-0.6727294921875,0.38641357421875,-0.18359375,0.25,0.140625,-0.021484375,-0.0078125,-0.001953125
2026-09-02T07:45:18.189610,0.524658203125,-0.3582763671875,-0.6727294921875,0.38641357421875,-0.18359375,0.25,0.140625,-0.021484375,-0.0078125,-0.001953125
2026-09-02T07:45:18.289940,0.524658203125,-0.3582763671875,-0.6727294921875,0.38641357421875,-0.18359375,0.25,0.140625,-0.021484375,-0.0078125,-0.001953125
2026-09-02T07:45:18.389881,0.524658203125,-0.3582763671875,-0.6727294921875,0.38641357421875,-0.18359375,0.25,0.140625,-0.021484375,-0.0078125,-0.001953125
2026-09-02T07:45:18.490079,0.524658203125,-0.3582763671875,-0.6727294921875,0.38641357421875,-0.18359375,0.25,0.140625,-0.021484375,-0.0078125,-0.001953125
2026-09-02T07:45:18.590198,0.524658203125,-0.3582763671875,-0.6727294921875,0.38641357421875,-0.18359375,0.25,0.140625,-0.021484375,-0.0078125,-0.001953125
2026-09-02T07:45:18.690280,0.524658203125,-0.3582763671875,-0.6727294921875,0.38641357421875,-0.18359375,0.25,0.140625,-0.021484375,-0.0078125,-0.001953125
2026-09-02T07:45:18.790661,0.524658203125,-0.3582763671875,-0.6727294921875,0.38641357421875,-0.18359375,0.25,0.140625,-0.021484375,-0.0078125,-0.001953125
2026-09-02T07:45:18.890782,0.524658203125,-0.3582763671875,-0.6727294921875,0.38641357421875,-0.18359375,0.25,0.140625,-0.021484375,-0.0078125,-0.001953125
2026-09-02T07:45:18.990818,0.524658203125,-0.3582763671875,-0.6727294921875,0.38641357421875,-0.18359375,0.25,0.140625,-0.021484375,-0.0078125,-0.001953125
2026-09-02T07:45:19.090896,0.524658203125,-0.3582763671875,-0.6727294921875,0.38641357421875,-0.18359375,0.25,0.140625,-0.021484375,-0.0078125,-0.001953125
2026-09-02T07:45:19.191335,0.524658203125,-0.3582763671875,-0.6727294921875,0.38641357421875,-0.18359375,0.25,0.140625,-0.021484375,-0.0078125,-0.001953125
2026-09-02T07:45:19.291101,0.524658203125,-0.3582763671875,-0.6727294921875,0.38641357421875,-0.18359375,0.25,0.140625,-0.021484375,-0.0078125,-0.001953125
2026-09-02T07:45:19.391313,0.524658203125,-0.3582763671875,-0.6727294921875,0.38641357421875,-0.18359375,0.25,0.140625,-0.021484375,-0.0078125,-0.001953125
2026-09-02T07:45:19.491415,0.524658203125,-0.3582763671875,-0.6727294921875,0.38641357421875,-0.18359375,0.25,0.140625,-0.021484375,-0.0078125,-0.001953125
2026-09-02T07:45:19.591363,0.524658203125,-0.3582763671875,-0.6727294921875,0.38641357421875,-0.18359375,0.25,0.140625,-0.021484375,-0.0078125,-0.001953125
2026-09-02T07:45:19.691531,0.524658203125,-0.3582763671875,-0.6727294921875,0.38641357421875,-0.18359375,0.25,0.140625,-0.021484375,-0.0078125,-0.001953125
2026-09-02T07:45:19.791751,0.524658203125,-0.3582763671875,-0.6727294921875,0.38641357421875,-0.18359375,0.25,0.140625,-0.021484375,-0.0078125,-0.001953125
2026-09-02T07:45:19.891775,0.524658203125,-0.3582763671875,-0.6727294921875,0.38641357421875,-0.18359375,0.25,0.140625,-0.021484375,-0.0078125,-0.001953125
2026-09-02T07:45:19.992075,0.524658203125,-0.3582763671875,-0.6727294921875,0.38641357421875,-0.18359375,0.25,0.140625,-0.021484375,-0.0078125,-0.001953125
2026-09-02T07:45:20.092038,0.524658203125,-0.3582763671875,-0.6727294921875,0.38641357421875,-0.18359375,0.25,0.140625,-0.021484375,-0.0078125,-0.001953125
2026-09-02T07:45:20.192312,0.524658203125,-0.3582763671875,-0.6727294921875,0.38641357421875,-0.18359375,0.25,0.140625,-0.021484375,-0.0078125,-0.001953125
2026-09-02T07:45:20.292292,0.524658203125,-0.3582763671875,-0.6727294921875,0.38641357421875,-0.18359375,0.25,0.140625,-0.021484375,-0.0078125,-0.001953125
2026-09-02T07:45:20.392551,0.524658203125,-0.3582763671875,-0.6727294921875,0.38641357421875,-0.18359375,0.25,0.140625,-0.021484375,-0.0078125,-0.001953125
2026-09-02T07:45:20.492997,0.524658203125,-0.3582763671875,-0.6727294921875,0.38641357421875,-0.18359375,0.25,0.140625,-0.021484375,-0.0078125,-0.001953125
2026-09-02T07:45:20.593275,0.524658203125,-0.3582763671875,-0.6727294921875,0.38641357421875,-0.18359375,0.25,0.140625,-0.021484375,-0.0078125,-0.001953125
2026-09-02T07:45:20.693293,0.524658203125,-0.3582763671875,-0.6727294921875,0.38641357421875,-0.18359375,0.25,0.140625,-0.021484375,-0.0078125,-0.001953125
2026-09-02T07:45:20.793510,0.524658203125,-0.3582763671875,-0.6727294921875,0.38641357421875,-0.18359375,0.25,0.140625,-0.021484375,-0.0078125,-0.001953125
2026-09-02T07:45:20.893754,0.524658203125,-0.3582763671875,-0.6727294921875,0.38641357421875,-0.18359375,0.25,0.140625,-0.021484375,-0.0078125,-0.001953125
2026-09-02T07:45:20.993744,0.524658203125,-0.3582763671875,-0.6727294921875,0.38641357421875,-0.18359375,0.25,0.140625,-0.021484375,-0.0078125,-0.001953125
2026-09-02T07:45:21.094982,0.524658203125,-0.3582763671875,-0.6727294921875,0.38641357421875,-0.18359375,0.25,0.140625,-0.021484375,-0.0078125,-0.001953125
2026-09-02T07:45:21.194612,0.524658203125,-0.3582763671875,-0.6727294921875,0.38641357421875,-0.18359375,0.25,0.140625,-0.021484375,-0.0078125,-0.001953125
2026-09-02T07:45:21.294678,0.524658203125,-0.3582763671875,-0.6727294921875,0.38641357421875,-0.18359375,0.25,0.140625,-0.021484375,-0.0078125,-0.001953125
2026-09-02T07:45:21.394822,0.524658203125,-0.3582763671875,-0.6727294921875,0.38641357421875,-0.18359375,0.25,0.140625,-0.021484375,-0.0078125,-0.001953125
2026-09-02T07:45:21.494933,0.524658203125,-0.3582763671875,-0.6727294921875,0.38641357421875,-0.18359375,0.25,0.140625,-0.021484375,-0.0078125,-0.001953125
2026-09-02T07:45:21.594391,0.524658203125,-0.3582763671875,-0.6727294921875,0.38641357421875,-0.18359375,0.25,0.140625,-0.021484375,-0.0078125,-0.001953125
2026-09-02T07:45:21.695384,0.524658203125,-0.3582763671875,-0.6727294921875,0.38641357421875,-0.18359375,0.25,0.140625,-0.021484375,-0.0078125,-0.001953125
2026-09-02T07:45:21.795640,0.524658203125,-0.3582763671875,-0.6727294921875,0.38641357421875,-0.18359375,0.25,0.140625,-0.021484375,-0.0078125,-0.001953125
2026-09-02T07:45:21.895630,0.524658203125,-0.3582763671875,-0.6727294921875,0.38641357421875,-0.18359375,0.25,0.140625,-0.021484375,-0.0078125,-0.001953125
2026-09-02T07:45:21.995955,0.524658203125,-0.3582763671875,-0.6727294921875,0.38641357421875,-0.18359375,0.25,0.140625,-0.021484375,-0.0078125,-0.001953125
2026-09-02T07:45:22.096452,0.524658203125,-0.3582763671875,-0.6727294921875,0.38641357421875,-0.18359375,0.25,0.140625,-0.021484375,-0.0078125,-0.001953125
2026-09-02T07:45:22.196004,0.524658203125,-0.3582763671875,-0.6727294921875,0.38641357421875,-0.18359375,0.25,0.140625,-0.021484375,-0.0078125,-0.001953125
2026-09-02T07:45:22.296535,0.524658203125,-0.3582763671875,-0.6727294921875,0.38641357421875,-0.18359375,0.25,0.140625,-0.021484375,-0.0078125,-0.001953125
2026-09-02T07:45:22.396440,0.524658203125,-0.3582763671875,-0.6727294921875,0.38641357421875,-0.18359375,0.25,0.140625,-0.021484375,-0.0078125,-0.001953125
2026-09-02T07:45:22.496565,0.524658203125,-0.3582763671875,-0.6727294921875,0.38641357421875,-0.18359375,0.25,0.140625,-0.021484375,-0.0078125,-0.001953125
2026-09-02T07:45:22.596596,0.524658203125,-0.3582763671875,-0.6727294921875,0.38641357421875,-0.18359375,0.25,0.140625,-0.021484375,-0.0078125,-0.001953125
2026-09-02T07:45:22.696870,0.524658203125,-0.3582763671875,-0.6727294921875,0.38641357421875,-0.18359375,0.25,0.140625,-0.021484375,-0.0078125,-0.001953125
2026-09-02T07:45:22.796965,0.524658203125,-0.3582763671875,-0.6727294921875,0.38641357421875,-0.18359375,0.25,0.140625,-0.021484375,-0.0078125,-0.001953125
2026-09-02T07:45:22.897125,0.524658203125,-0.3582763671875,-0.6727294921875,0.38641357421875,-0.18359375,0.25,0.140625,-0.021484375,-0.0078125,-0.001953125
2026-09-02T07:45:22.996960,0.524658203125,-0.3582763671875,-0.6727294921875,0.38641357421875,-0.18359375,0.25,0.140625,-0.021484375,-0.0078125,-0.001953125
2026-09-02T07:45:23.096784,0.524658203125,-0.3582763671875,-0.6727294921875,0.38641357421875,-0.18359375,0.25,0.140625,-0.021484375,-0.0078125,-0.001953125
2026-09-02T07:45:23.197650,0.524658203125,-0.3582763671875,-0.6727294921875,0.38641357421875,-0.18359375,0.25,0.140625,-0.021484375,-0.0078125,-0.001953125
2026-09-02T07:45:23.297540,0.524658203125,-0.3582763671875,-0.6727294921875,0.38641357421875,-0.18359375,0.25,0.140625,-0.021484375,-0.0078125,-0.001953125
2026-09-02T07:45:23.397619,0.524658203125,-0.3582763671875,-0.6727294921875,0.38641357421875,-0.18359375,0.25,0.140625,-0.021484375,-0.0078125,-0.001953125
2026-09-02T07:45:23.497948,0.524658203125,-0.3582763671875,-0.6727294921875,0.38641357421875,-0.18359375,0.25,0.140625,-0.021484375,-0.0078125,-0.001953125
2026-09-02T07:45:23.598061,0.524658203125,-0.3582763671875,-0.6727294921875,0.38641357421875,-0.18359375,0.25,0.140625,-0.021484375,-0.0078125,-0.001953125
2026-09-02T07:45:23.698073,0.524658203125,-0.3582763671875,-0.6727294921875,0.38641357421875,-0.18359375,0.25,0.140625,-0.021484375,-0.0078125,-0.001953125
2026-09-02T07:45:23.798360,0.524658203125,-0.3582763671875,-0.6727294921875,0.38641357421875,-0.18359375,0.25,0.140625,-0.021484375,-0.0078125,-0.001953125
2026-09-02T07:45:23.898314,0.524658203125,-0.3582763671875,-0.6727294921875,0.38641357421875,-0.18359375,0.25,0.140625,-0.021484375,-0.0078125,-0.001953125
2026-09-02T07:45:23.998579,0.524658203125,-0.3582763671875,-0.6727294921875,0.38641357421875,-0.18359375,0.25,0.140625,-0.021484375,-0.0078125,-0.001953125
2026-09-02T07:45:24.098631,0.524658203125,-0.3582763671875,-0.6727294921875,0.38641357421875,-0.18359375,0.25,0.140625,-0.021484375,-0.0078125,-0.001953125
2026-09-02T07:45:24.198864,0.524658203125,-0.3582763671875,-0.6727294921875,0.38641357421875,-0.18359375,0.25,0.140625,-0.021484375,-0.0078125,-0.001953125
2026-09-02T07:45:24.298996,0.524658203125,-0.3582763671875,-0.6727294921875,0.38641357421875,-0.18359375,0.25,0.140625,-0.021484375,-0.0078125,-0.001953125
2026-09-02T07:45:24.399430,0.524658203125,-0.3582763671875,-0.6727294921875,0.38641357421875,-0.18359375,0.25,0.140625,-0.021484375,-0.0078125,-0.001953125
2026-09-02T07:45:24.499780,0.524658203125,-0.3582763671875,-0.6727294921875,0.38641357421875,-0.18359375,0.25,0.140625,-0.021484375,-0.0078125,-0.001953125
2026-09-02T07:45:24.598928,0.524658203125,-0.3582763671875,-0.6727294921875,0.38641357421875,-0.18359375,0.25,0.140625,-0.021484375,-0.0078125,-0.001953125
2026-09-02T07:45:24.699607,0.524658203125,-0.3582763671875,-0.6727294921875,0.38641357421875,-0.18359375,0.25,0.140625,-0.021484375,-0.0078125,-0.001953125
2026-09-02T07:45:24.799673,0.524658203125,-0.3582763671875,-0.6727294921875,0.38641357421875,-0.18359375,0.25,0.140625,-0.021484375,-0.0078125,-0.001953125
2026-09-02T07:45:24.899905,0.524658203125,-0.3582763671875,-0.6727294921875,0.38641357421875,-0.18359375,0.25,0.140625,-0.021484375,-0.0078125,-0.001953125
2026-09-02T07:45:24.999913,0.524658203125,-0.3582763671875,-0.6727294921875,0.38641357421875,-0.18359375,0.25,0.140625,-0.021484375,-0.0078125,-0.001953125
2026-09-02T07:45:25.099956,0.524658203125,-0.3582763671875,-0.6727294921875,0.38641357421875,-0.18359375,0.25,0.140625,-0.021484375,-0.0078125,-0.001953125
2026-09-02T07:45:25.200357,0.524658203125,-0.3582763671875,-0.6727294921875,0.38641357421875,-0.18359375,0.25,0.140625,-0.021484375,-0.0078125,-0.001953125
2026-09-02T07:45:25.300276,0.524658203125,-0.3582763671875,-0.6727294921875,0.38641357421875,-0.18359375,0.25,0.140625,-0.021484375,-0.0078125,-0.001953125
2026-09-02T07:45:25.400475,0.524658203125,-0.3582763671875,-0.6727294921875,0.38641357421875,-0.18359375,0.25,0.140625,-0.021484375,-0.0078125,-0.001953125
2026-09-02T07:45:25.500630,0.524658203125,-0.3582763671875,-0.6727294921875,0.38641357421875,-0.18359375,0.25,0.140625,-0.021484375,-0.0078125,-0.001953125
2026-09-02T07:45:25.600263,0.524658203125,-0.3582763671875,-0.6727294921875,0.38641357421875,-0.18359375,0.25,0.140625,-0.021484375,-0.0078125,-0.001953125
2026-09-02T07:45:25.700840,0.524658203125,-0.3582763671875,-0.6727294921875,0.38641357421875,-0.18359375,0.25,0.140625,-0.021484375,-0.0078125,-0.001953125
2026-09-02T07:45:25.800890,0.524658203125,-0.3582763671875,-0.6727294921875,0.38641357421875,-0.18359375,0.25,0.140625,-0.021484375,-0.0078125,-0.001953125
2026-09-02T07:45:25.901016,0.524658203125,-0.3582763671875,-0.6727294921875,0.38641357421875,-0.18359375,0.25,0.140625,-0.021484375,-0.0078125,-0.001953125
2026-09-02T07:45:26.001138,0.524658203125,-0.3582763671875,-0.6727294921875,0.38641357421875,-0.18359375,0.25,0.140625,-0.021484375,-0.0078125,-0.001953125
2026-09-02T07:45:26.101855,0.524658203125,-0.3582763671875,-0.6727294921875,0.38641357421875,-0.18359375,0.25,0.140625,-0.021484375,-0.0078125,-0.001953125
2026-09-02T07:45:26.201353,0.524658203125,-0.3582763671875,-0.6727294921875,0.38641357421875,-0.18359375,0.25,0.140625,-0.021484375,-0.0078125,-0.001953125
2026-09-02T07:45:26.301498,0.524658203125,-0.3582763671875,-0.6727294921875,0.38641357421875,-0.18359375,0.25,0.140625,-0.021484375,-0.0078125,-0.001953125
2026-09-02T07:45:26.401671,0.524658203125,-0.3582763671875,-0.6727294921875,0.38641357421875,-0.18359375,0.25,0.140625,-0.021484375,-0.0078125,-0.001953125
2026-09-02T07:45:26.501689,0.524658203125,-0.3582763671875,-0.6727294921875,0.38641357421875,-0.18359375,0.25,0.140625,-0.021484375,-0.0078125,-0.001953125
2026-09-02T07:45:26.601809,0.524658203125,-0.3582763671875,-0.6727294921875,0.38641357421875,-0.18359375,0.25,0.140625,-0.021484375,-0.0078125,-0.001953125
2026-09-02T07:45:26.703391,0.524658203125,-0.3582763671875,-0.6727294921875,0.38641357421875,-0.18359375,0.25,0.140625,-0.021484375,-0.0078125,-0.001953125
2026-09-02T07:45:26.802897,0.524658203125,-0.3582763671875,-0.6727294921875,0.38641357421875,-0.18359375,0.25,0.140625,-0.021484375,-0.0078125,-0.001953125
2026-09-02T07:45:26.902864,0.524658203125,-0.3582763671875,-0.6727294921875,0.38641357421875,-0.18359375,0.25,0.140625,-0.021484375,-0.0078125,-0.001953125
2026-09-02T07:45:27.003017,0.524658203125,-0.3582763671875,-0.6727294921875,0.38641357421875,-0.18359375,0.25,0.140625,-0.021484375,-0.0078125,-0.001953125
2026-09-02T07:45:27.103539,0.524658203125,-0.3582763671875,-0.6727294921875,0.38641357421875,-0.18359375,0.25,0.140625,-0.021484375,-0.0078125,-0.001953125
2026-09-02T07:45:27.203221,0.524658203125,-0.3582763671875,-0.6727294921875,0.38641357421875,-0.18359375,0.25,0.140625,-0.021484375,-0.0078125,-0.001953125
2026-09-02T07:45:27.303397,0.524658203125,-0.3582763671875,-0.6727294921875,0.38641357421875,-0.18359375,0.25,0.140625,-0.021484375,-0.0078125,-0.001953125
2026-09-02T07:45:27.403554,0.524658203125,-0.3582763671875,-0.6727294921875,0.38641357421875,-0.18359375,0.25,0.140625,-0.021484375,-0.0078125,-0.001953125
2026-09-02T07:45:27.503638,0.524658203125,-0.3582763671875,-0.6727294921875,0.38641357421875,-0.18359375,0.25,0.140625,-0.021484375,-0.0078125,-0.001953125
2026-09-02T07:45:27.603839,0.524658203125,-0.3582763671875,-0.6727294921875,0.38641357421875,-0.18359375,0.25,0.140625,-0.021484375,-0.0078125,-0.001953125
2026-09-02T07:45:27.703874,0.524658203125,-0.3582763671875,-0.6727294921875,0.38641357421875,-0.18359375,0.25,0.140625,-0.021484375,-0.0078125,-0.001953125
2026-09-02T07:45:27.803972,0.524658203125,-0.3582763671875,-0.6727294921875,0.38641357421875,-0.18359375,0.25,0.140625,-0.021484375,-0.0078125,-0.001953125
2026-09-02T07:45:27.904054,0.524658203125,-0.3582763671875,-0.6727294921875,0.38641357421875,-0.18359375,0.25,0.140625,-0.021484375,-0.0078125,-0.001953125
2026-09-02T07:45:28.004241,0.524658203125,-0.3582763671875,-0.6727294921875,0.38641357421875,-0.18359375,0.25,0.140625,-0.021484375,-0.0078125,-0.001953125
2026-09-02T07:45:28.104597,0.524658203125,-0.3582763671875,-0.6727294921875,0.38641357421875,-0.18359375,0.25,0.140625,-0.021484375,-0.0078125,-0.001953125
2026-09-02T07:45:28.204391,0.524658203125,-0.3582763671875,-0.6727294921875,0.38641357421875,-0.18359375,0.25,0.140625,-0.021484375,-0.0078125,-0.001953125
2026-09-02T07:45:28.304547,0.524658203125,-0.3582763671875,-0.6727294921875,0.38641357421875,-0.18359375,0.25,0.140625,-0.021484375,-0.0078125,-0.001953125
2026-09-02T07:45:28.404764,0.524658203125,-0.3582763671875,-0.6727294921875,0.38641357421875,-0.18359375,0.25,0.140625,-0.021484375,-0.0078125,-0.001953125
2026-09-02T07:45:28.504917,0.524658203125,-0.3582763671875,-0.6727294921875,0.38641357421875,-0.18359375,0.25,0.140625,-0.021484375,-0.0078125,-0.001953125
2026-09-02T07:45:28.605013,0.524658203125,-0.3582763671875,-0.6727294921875,0.38641357421875,-0.18359375,0.25,0.140625,-0.021484375,-0.0078125,-0.001953125
2026-09-02T07:45:28.705105,0.524658203125,-0.3582763671875,-0.6727294921875,0.38641357421875,-0.18359375,0.25,0.140625,-0.021484375,-0.0078125,-0.001953125
2026-09-02T07:45:28.805256,0.524658203125,-0.3582763671875,-0.6727294921875,0.38641357421875,-0.18359375,0.25,0.140625,-0.021484375,-0.0078125,-0.001953125
2026-09-02T07:45:28.905331,0.524658203125,-0.3582763671875,-0.6727294921875,0.38641357421875,-0.18359375,0.25,0.140625,-0.021484375,-0.0078125,-0.001953125
2026-09-02T07:45:29.005537,0.524658203125,-0.3582763671875,-0.6727294921875,0.38641357421875,-0.18359375,0.25,0.140625,-0.021484375,-0.0078125,-0.001953125
2026-09-02T07:45:29.105889,0.524658203125,-0.3582763671875,-0.6727294921875,0.38641357421875,-0.18359375,0.25,0.140625,-0.021484375,-0.0078125,-0.001953125
2026-09-02T07:45:29.205750,0.524658203125,-0.3582763671875,-0.6727294921875,0.38641357421875,-0.18359375,0.25,0.140625,-0.021484375,-0.0078125,-0.001953125
2026-09-02T07:45:29.306257,0.524658203125,-0.3582763671875,-0.6727294921875,0.38641357421875,-0.18359375,0.25,0.140625,-0.021484375,-0.0078125,-0.001953125
2026-09-02T07:45:29.406027,0.524658203125,-0.3582763671875,-0.6727294921875,0.38641357421875,-0.18359375,0.25,0.140625,-0.021484375,-0.0078125,-0.001953125
2026-09-02T07:45:29.506111,0.524658203125,-0.3582763671875,-0.6727294921875,0.38641357421875,-0.18359375,0.25,0.140625,-0.021484375,-0.0078125,-0.001953125
2026-09-02T07:45:29.606669,0.524658203125,-0.3582763671875,-0.6727294921875,0.38641357421875,-0.18359375,0.25,0.140625,-0.021484375,-0.0078125,-0.001953125
2026-09-02T07:45:29.706371,0.524658203125,-0.3582763671875,-0.6727294921875,0.38641357421875,-0.18359375,0.25,0.140625,-0.021484375,-0.0078125,-0.001953125
2026-09-02T07:45:29.806601,0.524658203125,-0.3582763671875,-0.6727294921875,0.38641357421875,-0.18359375,0.25,0.140625,-0.021484375,-0.0078125,-0.001953125
2026-09-02T07:45:29.907040,0.524658203125,-0.3582763671875,-0.6727294921875,0.38641357421875,-0.18359375,0.25,0.140625,-0.021484375,-0.0078125,-0.001953125
2026-09-02T07:45:30.006772,0.524658203125,-0.3582763671875,-0.6727294921875,0.38641357421875,-0.18359375,0.25,0.140625,-0.021484375,-0.0078125,-0.001953125
2026-09-02T07:45:30.107222,0.524658203125,-0.3582763671875,-0.6727294921875,0.38641357421875,-0.18359375,0.25,0.140625,-0.021484375,-0.0078125,-0.001953125
2026-09-02T07:45:30.207404,0.524658203125,-0.3582763671875,-0.6727294921875,0.38641357421875,-0.18359375,0.25,0.140625,-0.021484375,-0.0078125,-0.001953125
2026-09-02T07:45:30.307261,0.524658203125,-0.3582763671875,-0.6727294921875,0.38641357421875,-0.18359375,0.25,0.140625,-0.021484375,-0.0078125,-0.001953125
2026-09-02T07:45:30.407409,0.524658203125,-0.3582763671875,-0.6727294921875,0.38641357421875,-0.18359375,0.25,0.140625,-0.021484375,-0.0078125,-0.001953125
2026-09-02T07:45:30.507625,0.524658203125,-0.3582763671875,-0.6727294921875,0.38641357421875,-0.18359375,0.25,0.140625,-0.021484375,-0.0078125,-0.001953125
2026-09-02T07:45:30.607604,0.524658203125,-0.3582763671875,-0.6727294921875,0.38641357421875,-0.18359375,0.25,0.140625,-0.021484375,-0.0078125,-0.001953125
2026-09-02T07:45:30.707671,0.524658203125,-0.3582763671875,-0.6727294921875,0.38641357421875,-0.18359375,0.25,0.140625,-0.021484375,-0.0078125,-0.001953125
2026-09-02T07:45:30.807874,0.524658203125,-0.3582763671875,-0.6727294921875,0.38641357421875,-0.18359375,0.25,0.140625,-0.021484375,-0.0078125,-0.001953125
2026-09-02T07:45:30.907964,0.524658203125,-0.3582763671875,-0.6727294921875,0.38641357421875,-0.18359375,0.25,0.140625,-0.021484375,-0.0078125,-0.001953125
2026-09-02T07:45:31.008123,0.524658203125,-0.3582763671875,-0.6727294921875,0.38641357421875,-0.18359375,0.25,0.140625,-0.021484375,-0.0078125,-0.001953125
2026-09-02T07:45:31.108195,0.524658203125,-0.3582763671875,-0.6727294921875,0.38641357421875,-0.18359375,0.25,0.140625,-0.021484375,-0.0078125,-0.001953125
2026-09-02T07:45:31.208440,0.524658203125,-0.3582763671875,-0.6727294921875,0.38641357421875,-0.18359375,0.25,0.140625,-0.021484375,-0.0078125,-0.001953125
2026-09-02T07:45:31.308332,0.524658203125,-0.3582763671875,-0.6727294921875,0.38641357421875,-0.18359375,0.25,0.140625,-0.021484375,-0.0078125,-0.001953125
2026-09-02T07:45:31.408422,0.524658203125,-0.3582763671875,-0.6727294921875,0.38641357421875,-0.18359375,0.25,0.140625,-0.021484375,-0.0078125,-0.001953125
2026-09-02T07:45:31.508563,0.524658203125,-0.3582763671875,-0.6727294921875,0.38641357421875,-0.18359375,0.25,0.140625,-0.021484375,-0.0078125,-0.001953125
2026-09-02T07:45:31.608757,0.524658203125,-0.3582763671875,-0.6727294921875,0.38641357421875,-0.18359375,0.25,0.140625,-0.021484375,-0.0078125,-0.001953125
2026-09-02T07:45:31.708709,0.524658203125,-0.3582763671875,-0.6727294921875,0.38641357421875,-0.18359375,0.25,0.140625,-0.021484375,-0.0078125,-0.001953125
2026-09-02T07:45:31.809062,0.524658203125,-0.3582763671875,-0.6727294921875,0.38641357421875,-0.18359375,0.25,0.140625,-0.021484375,-0.0078125,-0.001953125
2026-09-02T07:45:31.909069,0.524658203125,-0.3582763671875,-0.6727294921875,0.38641357421875,-0.18359375,0.25,0.140625,-0.021484375,-0.0078125,-0.001953125
2026-09-02T07:45:32.009223,0.524658203125,-0.3582763671875,-0.6727294921875,0.38641357421875,-0.18359375,0.25,0.140625,-0.021484375,-0.0078125,-0.001953125
2026-09-02T07:45:32.109265,0.524658203125,-0.3582763671875,-0.6727294921875,0.38641357421875,-0.18359375,0.25,0.140625,-0.021484375,-0.0078125,-0.001953125
2026-09-02T07:45:32.209431,0.524658203125,-0.3582763671875,-0.6727294921875,0.38641357421875,-0.18359375,0.25,0.140625,-0.021484375,-0.0078125,-0.001953125
2026-09-02T07:45:32.309460,0.524658203125,-0.3582763671875,-0.6727294921875,0.38641357421875,-0.18359375,0.25,0.140625,-0.021484375,-0.0078125,-0.001953125
2026-09-02T07:45:32.409763,0.524658203125,-0.3582763671875,-0.6727294921875,0.38641357421875,-0.18359375,0.25,0.140625,-0.021484375,-0.0078125,-0.001953125
2026-09-02T07:45:32.509833,0.524658203125,-0.3582763671875,-0.6727294921875,0.38641357421875,-0.18359375,0.25,0.140625,-0.021484375,-0.0078125,-0.001953125
2026-09-02T07:45:32.609836,0.524658203125,-0.3582763671875,-0.6727294921875,0.38641357421875,-0.18359375,0.25,0.140625,-0.021484375,-0.0078125,-0.001953125
2026-09-02T07:45:32.710036,0.524658203125,-0.3582763671875,-0.6727294921875,0.38641357421875,-0.18359375,0.25,0.140625,-0.021484375,-0.0078125,-0.001953125
2026-09-02T07:45:32.810141,0.524658203125,-0.3582763671875,-0.6727294921875,0.38641357421875,-0.18359375,0.25,0.140625,-0.021484375,-0.0078125,-0.001953125
2026-09-02T07:45:32.910220,0.524658203125,-0.3582763671875,-0.6727294921875,0.38641357421875,-0.18359375,0.25,0.140625,-0.021484375,-0.0078125,-0.001953125
2026-09-02T07:45:33.010326,0.524658203125,-0.3582763671875,-0.6727294921875,0.38641357421875,-0.18359375,0.25,0.140625,-0.021484375,-0.0078125,-0.001953125
2026-09-02T07:45:33.110481,0.524658203125,-0.3582763671875,-0.6727294921875,0.38641357421875,-0.18359375,0.25,0.140625,-0.021484375,-0.0078125,-0.001953125
2026-09-02T07:45:33.210560,0.524658203125,-0.3582763671875,-0.6727294921875,0.38641357421875,-0.18359375,0.25,0.140625,-0.021484375,-0.0078125,-0.001953125
2026-09-02T07:45:33.310798,0.524658203125,-0.3582763671875,-0.6727294921875,0.38641357421875,-0.18359375,0.25,0.140625,-0.021484375,-0.0078125,-0.001953125
2026-09-02T07:45:33.410754,0.524658203125,-0.3582763671875,-0.6727294921875,0.38641357421875,-0.18359375,0.25,0.140625,-0.021484375,-0.0078125,-0.001953125
2026-09-02T07:45:33.510843,0.524658203125,-0.3582763671875,-0.6727294921875,0.38641357421875,-0.18359375,0.25,0.140625,-0.021484375,-0.0078125,-0.001953125
2026-09-02T07:45:33.611011,0.524658203125,-0.3582763671875,-0.6727294921875,0.38641357421875,-0.18359375,0.25,0.140625,-0.021484375,-0.0078125,-0.001953125
2026-09-02T07:45:33.711151,0.524658203125,-0.3582763671875,-0.6727294921875,0.38641357421875,-0.18359375,0.25,0.140625,-0.021484375,-0.0078125,-0.001953125
2026-09-02T07:45:33.811231,0.524658203125,-0.3582763671875,-0.6727294921875,0.38641357421875,-0.18359375,0.25,0.140625,-0.021484375,-0.0078125,-0.001953125
2026-09-02T07:45:33.911544,0.524658203125,-0.3582763671875,-0.6727294921875,0.38641357421875,-0.18359375,0.25,0.140625,-0.021484375,-0.0078125,-0.001953125
2026-09-02T07:45:34.011448,0.524658203125,-0.3582763671875,-0.6727294921875,0.38641357421875,-0.18359375,0.25,0.140625,-0.021484375,-0.0078125,-0.001953125
2026-09-02T07:45:34.111727,0.524658203125,-0.3582763671875,-0.6727294921875,0.38641357421875,-0.18359375,0.25,0.140625,-0.021484375,-0.0078125,-0.001953125
2026-09-02T07:45:34.211639,0.524658203125,-0.3582763671875,-0.6727294921875,0.38641357421875,-0.18359375,0.25,0.140625,-0.021484375,-0.0078125,-0.001953125
2026-09-02T07:45:34.311802,0.524658203125,-0.3582763671875,-0.6727294921875,0.38641357421875,-0.18359375,0.25,0.140625,-0.021484375,-0.0078125,-0.001953125
2026-09-02T07:45:34.412042,0.524658203125,-0.3582763671875,-0.6727294921875,0.38641357421875,-0.18359375,0.25,0.140625,-0.021484375,-0.0078125,-0.001953125
2026-09-02T07:45:34.512184,0.524658203125,-0.3582763671875,-0.6727294921875,0.38641357421875,-0.18359375,0.25,0.140625,-0.021484375,-0.0078125,-0.001953125
2026-09-02T07:45:34.612222,0.524658203125,-0.3582763671875,-0.6727294921875,0.38641357421875,-0.18359375,0.25,0.140625,-0.021484375,-0.0078125,-0.001953125
2026-09-02T07:45:34.712413,0.524658203125,-0.3582763671875,-0.6727294921875,0.38641357421875,-0.18359375,0.25,0.140625,-0.021484375,-0.0078125,-0.001953125
2026-09-02T07:45:34.812423,0.524658203125,-0.3582763671875,-0.6727294921875,0.38641357421875,-0.18359375,0.25,0.140625,-0.021484375,-0.0078125,-0.001953125
2026-09-02T07:45:34.912670,0.524658203125,-0.3582763671875,-0.6727294921875,0.38641357421875,-0.18359375,0.25,0.140625,-0.021484375,-0.0078125,-0.001953125
2026-09-02T07:45:35.012651,0.524658203125,-0.3582763671875,-0.6727294921875,0.38641357421875,-0.18359375,0.25,0.140625,-0.021484375,-0.0078125,-0.001953125
2026-09-02T07:45:35.112799,0.524658203125,-0.3582763671875,-0.6727294921875,0.38641357421875,-0.18359375,0.25,0.140625,-0.021484375,-0.0078125,-0.001953125
2026-09-02T07:45:35.212942,0.524658203125,-0.3582763671875,-0.6727294921875,0.38641357421875,-0.18359375,0.25,0.140625,-0.021484375,-0.0078125,-0.001953125
2026-09-02T07:45:35.313174,0.524658203125,-0.3582763671875,-0.6727294921875,0.38641357421875,-0.18359375,0.25,0.140625,-0.021484375,-0.0078125,-0.001953125
2026-09-02T07:45:35.413299,0.524658203125,-0.3582763671875,-0.6727294921875,0.38641357421875,-0.18359375,0.25,0.140625,-0.021484375,-0.0078125,-0.001953125
2026-09-02T07:45:35.513503,0.524658203125,-0.3582763671875,-0.6727294921875,0.38641357421875,-0.18359375,0.25,0.140625,-0.021484375,-0.0078125,-0.001953125
2026-09-02T07:45:35.613557,0.524658203125,-0.3582763671875,-0.6727294921875,0.38641357421875,-0.18359375,0.25,0.140625,-0.021484375,-0.0078125,-0.001953125
2026-09-02T07:45:35.713993,0.524658203125,-0.3582763671875,-0.6727294921875,0.38641357421875,-0.18359375,0.25,0.140625,-0.021484375,-0.0078125,-0.001953125
2026-09-02T07:45:35.813995,0.524658203125,-0.3582763671875,-0.6727294921875,0.38641357421875,-0.18359375,0.25,0.140625,-0.021484375,-0.0078125,-0.001953125
2026-09-02T07:45:35.914286,0.524658203125,-0.3582763671875,-0.6727294921875,0.38641357421875,-0.18359375,0.25,0.140625,-0.021484375,-0.0078125,-0.001953125
2026-09-02T07:45:36.014219,0.524658203125,-0.3582763671875,-0.6727294921875,0.38641357421875,-0.18359375,0.25,0.140625,-0.021484375,-0.0078125,-0.001953125
2026-09-02T07:45:36.114396,0.524658203125,-0.3582763671875,-0.6727294921875,0.38641357421875,-0.18359375,0.25,0.140625,-0.021484375,-0.0078125,-0.001953125
2026-09-02T07:45:36.214532,0.524658203125,-0.3582763671875,-0.6727294921875,0.38641357421875,-0.18359375,0.25,0.140625,-0.021484375,-0.0078125,-0.001953125
2026-09-02T07:45:36.315365,0.524658203125,-0.3582763671875,-0.6727294921875,0.38641357421875,-0.18359375,0.25,0.140625,-0.021484375,-0.0078125,-0.001953125
2026-09-02T07:45:36.415096,0.524658203125,-0.3582763671875,-0.6727294921875,0.38641357421875,-0.18359375,0.25,0.140625,-0.021484375,-0.0078125,-0.001953125
2026-09-02T07:45:36.515255,0.524658203125,-0.3582763671875,-0.6727294921875,0.38641357421875,-0.18359375,0.25,0.140625,-0.021484375,-0.0078125,-0.001953125
2026-09-02T07:45:36.615349,0.524658203125,-0.3582763671875,-0.6727294921875,0.38641357421875,-0.18359375,0.25,0.140625,-0.021484375,-0.0078125,-0.001953125
2026-09-02T07:45:36.715609,0.524658203125,-0.3582763671875,-0.6727294921875,0.38641357421875,-0.18359375,0.25,0.140625,-0.021484375,-0.0078125,-0.001953125
2026-09-02T07:45:36.815532,0.524658203125,-0.3582763671875,-0.6727294921875,0.38641357421875,-0.18359375,0.25,0.140625,-0.021484375,-0.0078125,-0.001953125
2026-09-02T07:45:36.915648,0.524658203125,-0.3582763671875,-0.6727294921875,0.38641357421875,-0.18359375,0.25,0.140625,-0.021484375,-0.0078125,-0.001953125
2026-09-02T07:45:37.015870,0.524658203125,-0.3582763671875,-0.6727294921875,0.38641357421875,-0.18359375,0.25,0.140625,-0.021484375,-0.0078125,-0.001953125
2026-09-02T07:45:37.115953,0.524658203125,-0.3582763671875,-0.6727294921875,0.38641357421875,-0.18359375,0.25,0.140625,-0.021484375,-0.0078125,-0.001953125
2026-09-02T07:45:37.216027,0.524658203125,-0.3582763671875,-0.6727294921875,0.38641357421875,-0.18359375,0.25,0.140625,-0.021484375,-0.0078125,-0.001953125
2026-09-02T07:45:37.316384,0.524658203125,-0.3582763671875,-0.6727294921875,0.38641357421875,-0.18359375,0.25,0.140625,-0.021484375,-0.0078125,-0.001953125
2026-09-02T07:45:37.416386,0.524658203125,-0.3582763671875,-0.6727294921875,0.38641357421875,-0.18359375,0.25,0.140625,-0.021484375,-0.0078125,-0.001953125
2026-09-02T07:45:37.516599,0.524658203125,-0.3582763671875,-0.6727294921875,0.38641357421875,-0.18359375,0.25,0.140625,-0.021484375,-0.0078125,-0.001953125
2026-09-02T07:45:37.616648,0.524658203125,-0.3582763671875,-0.6727294921875,0.38641357421875,-0.18359375,0.25,0.140625,-0.021484375,-0.0078125,-0.001953125
2026-09-02T07:45:37.716962,0.524658203125,-0.3582763671875,-0.6727294921875,0.38641357421875,-0.18359375,0.25,0.140625,-0.021484375,-0.0078125,-0.001953125
2026-09-02T07:45:37.817098,0.524658203125,-0.3582763671875,-0.6727294921875,0.38641357421875,-0.18359375,0.25,0.140625,-0.021484375,-0.0078125,-0.001953125
2026-09-02T07:45:37.917065,0.524658203125,-0.3582763671875,-0.6727294921875,0.38641357421875,-0.18359375,0.25,0.140625,-0.021484375,-0.0078125,-0.001953125
2026-09-02T07:45:38.017151,0.524658203125,-0.3582763671875,-0.6727294921875,0.38641357421875,-0.18359375,0.25,0.140625,-0.021484375,-0.0078125,-0.001953125
2026-09-02T07:45:38.117630,0.524658203125,-0.3582763671875,-0.6727294921875,0.38641357421875,-0.18359375,0.25,0.140625,-0.021484375,-0.0078125,-0.001953125
2026-09-02T07:45:38.217579,0.524658203125,-0.3582763671875,-0.6727294921875,0.38641357421875,-0.18359375,0.25,0.140625,-0.021484375,-0.0078125,-0.001953125
2026-09-02T07:45:38.317658,0.524658203125,-0.3582763671875,-0.6727294921875,0.38641357421875,-0.18359375,0.25,0.140625,-0.021484375,-0.0078125,-0.001953125
2026-09-02T07:45:38.417833,0.524658203125,-0.3582763671875,-0.6727294921875,0.38641357421875,-0.18359375,0.25,0.140625,-0.021484375,-0.0078125,-0.001953125
2026-09-02T07:45:38.518019,0.524658203125,-0.3582763671875,-0.6727294921875,0.38641357421875,-0.18359375,0.25,0.140625,-0.021484375,-0.0078125,-0.001953125
2026-09-02T07:45:38.618203,0.524658203125,-0.3582763671875,-0.6727294921875,0.38641357421875,-0.18359375,0.25,0.140625,-0.021484375,-0.0078125,-0.001953125
2026-09-02T07:45:38.718355,0.524658203125,-0.3582763671875,-0.6727294921875,0.38641357421875,-0.18359375,0.25,0.140625,-0.021484375,-0.0078125,-0.001953125
2026-09-02T07:45:38.818736,0.524658203125,-0.3582763671875,-0.6727294921875,0.38641357421875,-0.18359375,0.25,0.140625,-0.021484375,-0.0078125,-0.001953125
2026-09-02T07:45:38.918802,0.524658203125,-0.3582763671875,-0.6727294921875,0.38641357421875,-0.18359375,0.25,0.140625,-0.021484375,-0.0078125,-0.001953125
2026-09-02T07:45:39.018821,0.524658203125,-0.3582763671875,-0.6727294921875,0.38641357421875,-0.18359375,0.25,0.140625,-0.021484375,-0.0078125,-0.001953125
2026-09-02T07:45:39.119099,0.524658203125,-0.3582763671875,-0.6727294921875,0.38641357421875,-0.18359375,0.25,0.140625,-0.021484375,-0.0078125,-0.001953125
2026-09-02T07:45:39.219200,0.524658203125,-0.3582763671875,-0.6727294921875,0.38641357421875,-0.18359375,0.25,0.140625,-0.021484375,-0.0078125,-0.001953125
2026-09-02T07:45:39.319552,0.524658203125,-0.3582763671875,-0.6727294921875,0.38641357421875,-0.18359375,0.25,0.140625,-0.021484375,-0.0078125,-0.001953125
2026-09-02T07:45:39.419516,0.524658203125,-0.3582763671875,-0.6727294921875,0.38641357421875,-0.18359375,0.25,0.140625,-0.021484375,-0.0078125,-0.001953125
2026-09-02T07:45:39.519717,0.524658203125,-0.3582763671875,-0.6727294921875,0.38641357421875,-0.18359375,0.25,0.140625,-0.021484375,-0.0078125,-0.001953125
2026-09-02T07:45:39.619830,0.524658203125,-0.3582763671875,-0.6727294921875,0.38641357421875,-0.18359375,0.25,0.140625,-0.021484375,-0.0078125,-0.001953125
2026-09-02T07:45:39.720047,0.524658203125,-0.3582763671875,-0.6727294921875,0.38641357421875,-0.18359375,0.25,0.140625,-0.021484375,-0.0078125,-0.001953125
2026-09-02T07:45:39.820883,0.524658203125,-0.3582763671875,-0.6727294921875,0.38641357421875,-0.18359375,0.25,0.140625,-0.021484375,-0.0078125,-0.001953125
2026-09-02T07:45:39.920562,0.524658203125,-0.3582763671875,-0.6727294921875,0.38641357421875,-0.18359375,0.25,0.140625,-0.021484375,-0.0078125,-0.001953125
2026-09-02T07:45:40.020872,0.524658203125,-0.3582763671875,-0.6727294921875,0.38641357421875,-0.18359375,0.25,0.140625,-0.021484375,-0.0078125,-0.001953125
2026-09-02T07:45:40.120498,0.524658203125,-0.3582763671875,-0.6727294921875,0.38641357421875,-0.18359375,0.25,0.140625,-0.021484375,-0.0078125,-0.001953125
2026-09-02T07:45:40.220877,0.524658203125,-0.3582763671875,-0.6727294921875,0.38641357421875,-0.18359375,0.25,0.140625,-0.021484375,-0.0078125,-0.001953125
2026-09-02T07:45:40.321047,0.524658203125,-0.3582763671875,-0.6727294921875,0.38641357421875,-0.18359375,0.25,0.140625,-0.021484375,-0.0078125,-0.001953125
2026-09-02T07:45:40.421243,0.524658203125,-0.3582763671875,-0.6727294921875,0.38641357421875,-0.18359375,0.25,0.140625,-0.021484375,-0.0078125,-0.001953125
2026-09-02T07:45:40.521559,0.524658203125,-0.3582763671875,-0.6727294921875,0.38641357421875,-0.18359375,0.25,0.140625,-0.021484375,-0.0078125,-0.001953125
2026-09-02T07:45:40.621832,0.524658203125,-0.3582763671875,-0.6727294921875,0.38641357421875,-0.18359375,0.25,0.140625,-0.021484375,-0.0078125,-0.001953125
2026-09-02T07:45:40.721631,0.524658203125,-0.3582763671875,-0.6727294921875,0.38641357421875,-0.18359375,0.25,0.140625,-0.021484375,-0.0078125,-0.001953125
2026-09-02T07:45:40.821822,0.524658203125,-0.3582763671875,-0.6727294921875,0.38641357421875,-0.18359375,0.25,0.140625,-0.021484375,-0.0078125,-0.001953125
