timestamp,quat_i,quat_j,quat_k,quat_real,accel_x,accel_y,accel_z,gyro_x,gyro_y,gyro_z
2026-09-07T14:47:43.535745,0.53363037109375,0.44171142578125,0.47308349609375,0.54437255859375,0.0,0.0,0.0,0.0,0.0,0.0
2026-09-07T14:47:43.644634,0.53363037109375,0.44171142578125,0.47308349609375,0.54437255859375,0.00390625,0.0390625,0.0390625,-0.00390625,0.001953125,0.00390625
2026-09-07T14:47:43.762822,0.53363037109375,0.44171142578125,0.4730224609375,0.54437255859375,0.01171875,0.03125,-0.0703125,0.0,0.0,-0.001953125
2026-09-07T14:47:43.844934,0.53363037109375,0.4417724609375,0.47296142578125,0.54443359375,0.01171875,0.0546875,-0.015625,-0.001953125,0.001953125,-0.001953125
2026-09-07T14:47:43.967776,0.53369140625,0.44189453125,0.47283935546875,0.54437255859375,0.01171875,0.0078125,0.0234375,0.00390625,0.0,0.001953125
2026-09-07T14:47:44.068324,0.53369140625,0.44189453125,0.47283935546875,0.5443115234375,-0.01953125,-0.03125,0.0546875,-0.001953125,0.0,0.005859375
2026-09-07T14:47:44.144856,0.53375244140625,0.44195556640625,0.4727783203125,0.5443115234375,0.01953125,-0.0234375,0.0390625,-0.001953125,-0.001953125,0.001953125
2026-09-07T14:47:44.263229,0.53369140625,0.44195556640625,0.4727783203125,0.54437255859375,0.01953125,0.0546875,0.03125,-0.00390625,-0.001953125,-0.001953125
2026-09-07T14:47:44.352478,0.5335693359375,0.44195556640625,0.4727783203125,0.54449462890625,0.01171875,0.0078125,-0.078125,0.001953125,-0.001953125,-0.001953125
2026-09-07T14:47:44.461208,0.53350830078125,0.44195556640625,0.4727783203125,0.54449462890625,-0.01953125,0.0078125,0.0078125,-0.001953125,0.251953125,0.0
2026-09-07T14:47:44.553269,0.53350830078125,0.44195556640625,0.4727783203125,0.5445556640625,0.01953125,-0.03125,0.0390625,-0.00390625,0.0,0.00390625
2026-09-07T14:47:44.661504,0.53350830078125,0.44195556640625,0.4727783203125,0.5445556640625,-0.01953125,-0.03125,0.03125,0.001953125,0.0,0.001953125
2026-09-07T14:47:44.752269,0.533447265625,0.44195556640625,0.4727783203125,0.54461669921875,0.01171875,0.046875,-0.0390625,-0.0078125,0.001953125,0.0078125
2026-09-07T14:47:44.862276,0.53338623046875,0.44189453125,0.47283935546875,0.54461669921875,0.01171875,0.0,-0.0390625,0.0,0.001953125,-0.001953125
2026-09-07T14:47:44.960346,0.533447265625,0.44195556640625,0.4727783203125,0.54461669921875,-0.02734375,-0.0390625,0.046875,0.0,0.001953125,0.001953125
2026-09-07T14:47:45.059431,0.533447265625,0.44195556640625,0.4727783203125,0.5445556640625,-0.02734375,0.0078125,0.0,0.0,-0.001953125,0.001953125
2026-09-07T14:47:45.140763,0.53350830078125,0.4420166015625,0.4727783203125,0.5445556640625,-0.01953125,0.046875,-0.0390625,0.0,0.001953125,0.00390625
2026-09-07T14:47:45.263645,0.533447265625,0.4420166015625,0.47271728515625,0.5445556640625,0.01953125,0.0078125,-0.0390625,-0.00390625,0.0,-0.001953125
2026-09-07T14:47:45.360635,0.53350830078125,0.4420166015625,0.47271728515625,0.5445556640625,0.01171875,0.0078125,-0.0234375,-0.001953125,0.001953125,-0.001953125
2026-09-07T14:47:45.459921,0.533447265625,0.44207763671875,0.47271728515625,0.5445556640625,0.01171875,-0.03125,0.0546875,0.001953125,0.0,-0.001953125
2026-09-07T14:47:45.560625,0.53350830078125,0.44207763671875,0.47265625,0.5445556640625,0.01953125,-0.03125,0.0,0.001953125,-0.001953125,0.0
2026-09-07T14:47:45.660157,0.5335693359375,0.44207763671875,0.47259521484375,0.5445556640625,0.01953125,-0.03125,-0.0390625,0.0,0.001953125,0.001953125
2026-09-07T14:47:45.760716,0.53350830078125,0.442138671875,0.47259521484375,0.5445556640625,0.01171875,-0.03125,-0.03125,-0.001953125,0.0,0.001953125
2026-09-07T14:47:45.860337,0.53350830078125,0.442138671875,0.47259521484375,0.5445556640625,-0.01953125,0.0078125,0.0078125,0.0,0.0,0.00390625
2026-09-07T14:47:45.960315,0.53350830078125,0.442138671875,0.47259521484375,0.5445556640625,-0.01953125,0.0078125,0.0078125,0.0,0.0,0.001953125
2026-09-07T14:47:46.060047,0.53350830078125,0.442138671875,0.47259521484375,0.5445556640625,-0.01953125,0.0078125,0.0,0.001953125,0.001953125,0.001953125
2026-09-07T14:47:46.158724,0.533447265625,0.442138671875,0.47265625,0.5445556640625,-0.02734375,0.0078125,-0.0390625,-0.001953125,-0.001953125,0.0
2026-09-07T14:47:46.259718,0.533447265625,0.442138671875,0.47259521484375,0.5445556640625,0.01171875,-0.03125,-0.0234375,-0.001953125,0.001953125,0.0
2026-09-07T14:47:46.361625,0.533447265625,0.44219970703125,0.47259521484375,0.5445556640625,0.01171875,0.0078125,-0.015625,0.0,0.0,0.001953125
2026-09-07T14:47:46.461583,0.5335693359375,0.44219970703125,0.47259521484375,0.54449462890625,0.01171875,-0.03125,0.0234375,0.001953125,-0.001953125,0.00390625
2026-09-07T14:47:46.562364,0.5335693359375,0.4422607421875,0.4725341796875,0.54443359375,0.01171875,-0.0234375,0.015625,0.001953125,-0.001953125,0.0
2026-09-07T14:47:46.661885,0.5335693359375,0.4422607421875,0.4725341796875,0.54443359375,-0.02734375,0.015625,-0.03125,0.0,0.001953125,0.001953125
2026-09-07T14:47:46.762798,0.5335693359375,0.4422607421875,0.4725341796875,0.54443359375,0.01171875,0.0078125,0.015625,-0.001953125,0.0,-0.00390625
2026-09-07T14:47:46.861749,0.53363037109375,0.4422607421875,0.4725341796875,0.54437255859375,-0.02734375,0.0078125,0.015625,0.0,0.001953125,0.00390625
2026-09-07T14:47:46.961722,0.5335693359375,0.4422607421875,0.47259521484375,0.54437255859375,-0.02734375,0.0078125,0.11328125,0.0,0.0,-0.001953125
2026-09-07T14:47:47.061586,0.5335693359375,0.44219970703125,0.47265625,0.54443359375,-0.02734375,0.046875,-0.0078125,-0.001953125,-0.001953125,0.0
2026-09-07T14:47:47.163085,0.5335693359375,0.442138671875,0.47265625,0.54443359375,0.01171875,0.0078125,-0.0390625,0.0,0.0,0.0
2026-09-07T14:47:47.262749,0.5335693359375,0.442138671875,0.47265625,0.54443359375,0.01171875,-0.0390625,0.0078125,0.0,0.0,-0.001953125
2026-09-07T14:47:47.363712,0.53350830078125,0.442138671875,0.47271728515625,0.54443359375,0.01171875,-0.0390625,0.0078125,-0.001953125,0.00390625,0.0
2026-09-07T14:47:47.463203,0.53350830078125,0.442138671875,0.47265625,0.54449462890625,0.05078125,-0.03125,0.0078125,0.0,0.0,-0.001953125
2026-09-07T14:47:47.552496,0.53350830078125,0.442138671875,0.47265625,0.54449462890625,0.01171875,0.0078125,0.0,0.0,0.0,-0.001953125
2026-09-07T14:47:47.659188,0.53350830078125,0.4420166015625,0.47271728515625,0.54449462890625,0.00390625,0.0078125,-0.0390625,0.0,0.001953125,0.0
2026-09-07T14:47:47.759407,0.5335693359375,0.44207763671875,0.47271728515625,0.54443359375,-0.03515625,0.0,0.0078125,-0.00390625,0.0,0.0
2026-09-07T14:47:47.858368,0.5335693359375,0.44207763671875,0.47271728515625,0.54437255859375,-0.03515625,0.0,0.0078125,-0.001953125,0.001953125,-0.001953125
2026-09-07T14:47:47.959840,0.53363037109375,0.44207763671875,0.4727783203125,0.54437255859375,0.01171875,0.0078125,0.0078125,-0.001953125,-0.001953125,-0.001953125
2026-09-07T14:47:48.053084,0.53363037109375,0.44207763671875,0.47271728515625,0.54437255859375,0.01171875,0.0078125,0.0078125,0.0,-0.001953125,0.0
2026-09-07T14:47:48.160450,0.53363037109375,0.442138671875,0.47271728515625,0.5443115234375,0.01171875,-0.03125,0.0078125,0.001953125,0.001953125,0.0
2026-09-07T14:47:48.260273,0.5335693359375,0.442138671875,0.47271728515625,0.54437255859375,0.01171875,-0.03125,-0.0234375,-0.001953125,0.001953125,-0.001953125
2026-09-07T14:47:48.360824,0.5335693359375,0.44219970703125,0.47271728515625,0.5443115234375,0.01171875,-0.03125,0.046875,0.001953125,0.0,0.0
2026-09-07T14:47:48.460194,0.5335693359375,0.44219970703125,0.47271728515625,0.5443115234375,-0.02734375,0.0078125,0.0078125,0.0,0.0,0.0
2026-09-07T14:47:48.554089,0.5335693359375,0.44219970703125,0.47271728515625,0.5443115234375,0.01171875,0.0078125,0.015625,0.0,0.0,0.0
2026-09-07T14:47:48.659996,0.53363037109375,0.4422607421875,0.47271728515625,0.54425048828125,-0.02734375,0.015625,0.015625,0.0,0.0,0.0
2026-09-07T14:47:48.760204,0.53363037109375,0.4422607421875,0.47271728515625,0.54425048828125,-0.02734375,0.0078125,-0.0234375,0.0,0.0,0.0
2026-09-07T14:47:48.860367,0.53369140625,0.4422607421875,0.47265625,0.54425048828125,0.01171875,0.0078125,0.0234375,0.0,-0.001953125,-0.001953125
2026-09-07T14:47:48.960762,0.53369140625,0.44232177734375,0.47259521484375,0.544189453125,0.01171875,0.0078125,0.015625,-0.00390625,-0.001953125,0.0
2026-09-07T14:47:49.050310,0.53369140625,0.4422607421875,0.47265625,0.54425048828125,0.05078125,0.0078125,0.0078125,-0.001953125,0.0,-0.001953125
2026-09-07T14:47:49.160332,0.53369140625,0.4422607421875,0.47259521484375,0.54425048828125,0.01171875,-0.03125,-0.03125,0.0,0.0,0.00390625
2026-09-07T14:47:49.260823,0.53369140625,0.4422607421875,0.47265625,0.54425048828125,0.01171875,-0.03125,-0.0234375,-0.00390625,0.001953125,-0.001953125
2026-09-07T14:47:49.359903,0.53369140625,0.4422607421875,0.47265625,0.544189453125,0.01171875,0.0078125,-0.015625,-0.001953125,0.0,0.001953125
2026-09-07T14:47:49.460545,0.53375244140625,0.44232177734375,0.47259521484375,0.54412841796875,0.01171875,0.0078125,0.0234375,0.001953125,0.001953125,0.0
2026-09-07T14:47:49.552439,0.5338134765625,0.4423828125,0.4725341796875,0.5440673828125,0.01171875,-0.03125,0.0234375,0.001953125,0.0,0.0
2026-09-07T14:47:49.660506,0.5338134765625,0.4423828125,0.4725341796875,0.5440673828125,0.01171875,0.0078125,-0.0625,-0.001953125,0.001953125,-0.001953125
2026-09-07T14:47:49.761538,0.5338134765625,0.4423828125,0.4725341796875,0.5440673828125,0.01171875,0.046875,-0.0234375,0.0,0.0,0.0
2026-09-07T14:47:49.859875,0.5338134765625,0.4423828125,0.4725341796875,0.5440673828125,-0.03515625,0.046875,-0.0234375,0.0,0.0,0.0
2026-09-07T14:47:49.960625,0.5338134765625,0.4423828125,0.4725341796875,0.5440673828125,0.01171875,0.0078125,0.015625,0.0,0.0,0.0
2026-09-07T14:47:50.052422,0.5338134765625,-1.5576171875,0.4725341796875,0.5440673828125,0.05078125,0.046875,-0.0234375,0.0,0.0,0.0
2026-09-07T14:47:50.159441,0.5338134765625,0.44244384765625,0.4725341796875,0.5440673828125,0.01171875,-0.03125,0.0234375,0.0,0.0,0.0
2026-09-07T14:47:50.268984,0.53387451171875,0.44244384765625,0.4725341796875,0.54400634765625,0.05078125,0.0078125,-0.015625,0.0,0.0,0.0
2026-09-07T14:47:50.359422,0.53387451171875,0.44244384765625,0.4725341796875,0.54400634765625,0.00390625,0.0078125,0.0234375,0.0,0.0,0.0
2026-09-07T14:47:50.468650,0.53387451171875,0.44244384765625,0.4725341796875,0.54400634765625,0.00390625,-0.03125,0.0546875,0.0,0.0,0.0
2026-09-07T14:47:50.557044,0.53387451171875,0.4423828125,0.4725341796875,0.54400634765625,0.00390625,-0.03125,0.0,0.0,0.0,0.0
2026-09-07T14:47:50.653478,0.5338134765625,0.44232177734375,0.47265625,-1.4559326171875,-0.03515625,0.046875,0.0,0.0,0.0,0.0
2026-09-07T14:47:50.758835,0.5338134765625,0.4422607421875,0.47265625,0.5440673828125,-0.03515625,0.0,0.0390625,0.0,0.0,0.0
2026-09-07T14:47:50.858300,0.53375244140625,0.44219970703125,0.4727783203125,0.54412841796875,-0.02734375,0.0078125,-0.0078125,-0.001953125,0.001953125,-0.001953125
2026-09-07T14:47:50.958063,0.53369140625,0.442138671875,0.47283935546875,0.544189453125,-0.02734375,0.046875,0.03125,-0.00390625,-0.001953125,0.001953125
2026-09-07T14:47:51.057660,0.53363037109375,0.44207763671875,0.47283935546875,0.54425048828125,0.01171875,-0.03125,-0.0078125,0.0,0.001953125,-0.001953125
2026-09-07T14:47:51.153537,0.5335693359375,0.44207763671875,0.472900390625,0.5443115234375,0.01171875,-0.03125,0.0390625,-0.001953125,0.0,-0.00390625
2026-09-07T14:47:51.254351,0.53350830078125,0.44207763671875,0.472900390625,0.5443115234375,0.05078125,0.015625,-0.0390625,0.0,0.001953125,-0.001953125
2026-09-07T14:47:51.354364,0.533447265625,0.44207763671875,0.472900390625,0.54437255859375,0.01171875,-0.0234375,0.0,-0.001953125,0.0,0.0
2026-09-07T14:47:51.450870,0.53350830078125,0.44207763671875,0.472900390625,0.54437255859375,0.01171875,-0.0234375,0.0078125,0.00390625,0.001953125,0.001953125
2026-09-07T14:47:51.550515,0.533447265625,0.44207763671875,0.47283935546875,0.54437255859375,0.00390625,0.015625,0.0,0.001953125,0.001953125,0.00390625
2026-09-07T14:47:51.652431,0.53350830078125,0.4420166015625,0.47283935546875,0.54443359375,0.00390625,0.015625,0.0,-0.001953125,0.0,0.0
2026-09-07T14:47:51.752023,0.53350830078125,0.4420166015625,0.47283935546875,0.54443359375,0.01171875,-0.0234375,0.0390625,0.001953125,0.001953125,-0.001953125
2026-09-07T14:47:51.852808,0.53350830078125,0.44207763671875,0.47283935546875,0.54443359375,0.01171875,0.046875,-0.0390625,-0.001953125,0.0,0.001953125
2026-09-07T14:47:51.951735,0.53350830078125,0.44207763671875,0.47283935546875,0.54443359375,-0.02734375,0.5078125,0.0078125,0.001953125,0.0,0.001953125
2026-09-07T14:47:52.051919,0.533447265625,0.44207763671875,0.47283935546875,0.54443359375,0.01171875,0.046875,0.0078125,-0.005859375,-0.001953125,0.001953125
2026-09-07T14:47:52.501288,0.53338623046875,0.442138671875,0.472900390625,0.54443359375,0.05078125,0.0078125,-0.0390625,0.001953125,0.001953125,0.001953125
2026-09-07T14:47:52.591162,0.53338623046875,0.44207763671875,0.472900390625,0.54443359375,-0.02734375,0.015625,0.0,0.001953125,0.0,0.0
2026-09-07T14:47:52.686362,0.533447265625,0.442138671875,0.47283935546875,0.54443359375,-0.02734375,0.0078125,0.0390625,0.0,0.0,0.0
2026-09-07T14:47:52.793918,0.53338623046875,0.44207763671875,0.472900390625,0.54443359375,0.01171875,0.0078125,0.0703125,0.0078125,0.001953125,0.001953125
2026-09-07T14:47:52.890829,0.53338623046875,0.44207763671875,0.472900390625,0.54449462890625,0.01171875,0.0078125,-0.015625,0.0,0.0,0.0
2026-09-07T14:47:52.991061,0.5333251953125,0.4420166015625,0.47296142578125,0.5445556640625,0.05078125,-0.03125,-0.0078125,0.0,0.0,0.0
2026-09-07T14:47:53.092229,0.53326416015625,0.4420166015625,0.47296142578125,0.5445556640625,0.01171875,-0.03125,0.03125,0.0,0.0,0.0
2026-09-07T14:47:53.191944,0.533203125,0.44195556640625,0.4730224609375,0.54461669921875,0.01171875,-0.0234375,-0.015625,0.0,0.0,0.0
2026-09-07T14:47:53.293038,0.533203125,0.44189453125,0.47308349609375,0.54461669921875,0.05078125,-0.0234375,0.0625,0.00390625,0.0,0.0078125
2026-09-07T14:47:53.499190,0.5330810546875,0.44183349609375,0.47314453125,0.544677734375,-0.02734375,0.046875,-0.015625,-0.00390625,0.0,0.0
2026-09-07T14:47:53.597184,0.53302001953125,0.44183349609375,0.47314453125,0.5447998046875,-0.02734375,-0.03125,0.03125,-0.005859375,0.0,0.005859375
2026-09-07T14:47:53.697059,0.5330810546875,0.44183349609375,0.47314453125,0.54473876953125,0.01171875,0.0078125,-0.015625,0.0,0.0,0.0078125
2026-09-07T14:47:53.797144,0.5330810546875,0.44183349609375,0.47314453125,0.54473876953125,0.01171875,0.0078125,-0.015625,-0.001953125,0.001953125,0.0078125
2026-09-07T14:47:54.002975,0.53302001953125,0.4417724609375,0.47320556640625,0.5447998046875,0.01171875,0.0078125,-0.046875,0.0,0.0,-0.00390625
2026-09-07T14:47:54.099850,0.5330810546875,0.44183349609375,0.47314453125,0.54473876953125,-0.02734375,0.0078125,0.03125,0.001953125,-0.001953125,0.001953125
2026-09-07T14:47:54.200571,0.5330810546875,0.44183349609375,0.47308349609375,0.54473876953125,-0.01953125,0.0078125,0.015625,0.0078125,-0.001953125,0.00390625
2026-09-07T14:47:54.300440,0.53302001953125,0.4417724609375,0.47314453125,0.54486083984375,0.01953125,-0.03125,-0.03125,0.001953125,-0.001953125,-0.001953125
2026-09-07T14:47:54.400492,0.53289794921875,0.44171142578125,0.47320556640625,0.544921875,0.01953125,-0.03125,-0.0234375,0.001953125,0.001953125,-0.001953125
2026-09-07T14:47:54.500263,0.5328369140625,0.44171142578125,0.47320556640625,0.54498291015625,-0.01953125,-0.03125,0.0234375,0.0,0.00390625,-0.0078125
2026-09-07T14:47:54.600500,0.53277587890625,0.44171142578125,0.47320556640625,0.5450439453125,0.05078125,-0.03125,0.0234375,0.0078125,0.001953125,-0.009765625
2026-09-07T14:47:54.701258,0.5328369140625,0.4417724609375,0.47320556640625,0.54498291015625,0.01171875,-0.03125,-0.0078125,0.005859375,0.00390625,-0.0078125
2026-09-07T14:47:54.800596,0.53289794921875,0.4417724609375,0.47314453125,0.544921875,-0.02734375,0.0078125,-0.0078125,0.0,0.00390625,-0.001953125
2026-09-07T14:47:54.900398,0.53289794921875,0.4417724609375,0.47314453125,0.544921875,0.01171875,0.0078125,-0.0078125,-0.001953125,0.0,0.00390625
2026-09-07T14:47:54.999786,0.53289794921875,0.44183349609375,0.47314453125,0.544921875,-0.02734375,0.0078125,0.0390625,-0.005859375,0.0,0.009765625
2026-09-07T14:47:55.100425,0.53289794921875,0.44183349609375,0.47314453125,0.544921875,-0.02734375,0.0078125,0.03125,-0.005859375,0.0,0.009765625
2026-09-07T14:47:55.200225,0.53289794921875,0.44183349609375,0.47314453125,0.544921875,0.01171875,0.0078125,0.03125,-0.00390625,0.0,-0.001953125
2026-09-07T14:47:55.414497,0.53289794921875,0.44183349609375,0.47320556640625,0.544921875,-0.02734375,0.0078125,0.0546875,0.005859375,0.001953125,0.0
2026-09-07T14:47:55.510166,0.5328369140625,0.4417724609375,0.47320556640625,0.54498291015625,0.01171875,0.0,0.03125,-0.0078125,0.001953125,0.001953125
2026-09-07T14:47:55.609969,0.53271484375,0.44171142578125,0.47332763671875,0.5450439453125,-0.02734375,0.0390625,-0.015625,-0.00390625,-0.001953125,0.00390625
2026-09-07T14:47:55.710756,0.53265380859375,0.44158935546875,0.473388671875,0.545166015625,-0.02734375,0.0,0.04296875,0.005859375,0.001953125,0.001953125
2026-09-07T14:47:55.811508,0.53253173828125,0.44146728515625,0.4735107421875,0.54522705078125,0.01171875,0.0,-0.0703125,0.00390625,0.001953125,-0.001953125
2026-09-07T14:47:55.910163,0.5323486328125,0.44134521484375,0.4736328125,0.54541015625,0.01171875,0.0078125,0.05078125,-0.00390625,0.001953125,0.001953125
2026-09-07T14:47:56.010456,0.53228759765625,0.44122314453125,0.47369384765625,0.5455322265625,0.01171875,0.0078125,0.015625,-0.001953125,-0.00390625,0.001953125
2026-09-07T14:47:56.111127,0.5322265625,0.44110107421875,0.4737548828125,0.54559326171875,0.01171875,0.0078125,0.015625,0.00390625,0.001953125,-0.00390625
2026-09-07T14:47:56.210255,0.5321044921875,0.44110107421875,0.47381591796875,0.54571533203125,0.01171875,-0.03125,-0.015625,-0.009765625,-0.001953125,0.00390625
2026-09-07T14:47:56.311717,0.5321044921875,0.4410400390625,0.47381591796875,0.5457763671875,0.01171875,0.0078125,-0.0546875,-0.005859375,0.0,0.00390625
2026-09-07T14:47:56.535191,0.53204345703125,0.44091796875,0.47393798828125,0.54583740234375,0.01171875,-0.03125,0.03125,0.005859375,0.001953125,-0.00390625
2026-09-07T14:47:56.617636,0.531982421875,0.44091796875,0.473876953125,0.5458984375,0.01171875,0.0,0.03125,-0.0078125,-0.001953125,0.001953125
2026-09-07T14:47:56.726044,0.53204345703125,0.44091796875,0.473876953125,0.54583740234375,0.01171875,0.0,-0.0546875,-0.0078125,-0.001953125,0.001953125
2026-09-07T14:47:56.824669,0.531982421875,0.44085693359375,0.47393798828125,0.5458984375,0.01953125,-0.0390625,-0.0546875,-0.001953125,0.0,-0.00390625
2026-09-07T14:47:56.925161,0.531982421875,0.44091796875,-1.52606201171875,-1.4541015625,0.01953125,-0.0390625,0.07421875,0.005859375,0.001953125,-0.00390625
2026-09-07T14:47:57.024543,0.531982421875,0.44097900390625,0.473876953125,0.54583740234375,-0.01953125,-0.03125,0.0390625,-0.00390625,0.001953125,0.001953125
2026-09-07T14:47:57.125239,0.53192138671875,0.4410400390625,0.473876953125,0.5458984375,-0.01953125,-0.0234375,0.0390625,0.001953125,0.0,-0.00390625
2026-09-07T14:47:57.224773,0.531982421875,0.4410400390625,0.473876953125,0.54583740234375,0.01171875,0.0078125,-0.078125,-0.005859375,0.0,-0.00390625
2026-09-07T14:47:57.325842,0.53204345703125,0.4410400390625,0.47381591796875,0.5457763671875,-0.02734375,0.0078125,-0.03125,-0.00390625,0.001953125,0.001953125
2026-09-07T14:47:57.424828,0.531982421875,0.44110107421875,0.473876953125,0.5457763671875,0.01171875,0.046875,0.0078125,-0.001953125,0.001953125,-0.01171875
2026-09-07T14:47:57.524849,0.531982421875,0.44110107421875,0.47381591796875,0.5457763671875,-0.02734375,0.0078125,0.08203125,-0.001953125,0.001953125,-0.001953125
2026-09-07T14:47:57.624989,0.53204345703125,0.44110107421875,0.47381591796875,0.5457763671875,-0.01953125,-0.03125,0.03125,-0.001953125,0.001953125,0.001953125
2026-09-07T14:47:57.730630,0.531982421875,0.44110107421875,0.47381591796875,0.54583740234375,0.01953125,0.0546875,-0.0078125,-0.001953125,0.001953125,0.0
2026-09-07T14:47:57.824419,0.53192138671875,0.441162109375,0.47381591796875,0.54583740234375,-0.01953125,-0.0234375,0.0,-0.00390625,0.0,0.0
2026-09-07T14:47:57.930040,0.531982421875,0.441162109375,0.4737548828125,0.54583740234375,0.01171875,-0.0234375,-0.0390625,0.0,-0.001953125,-0.001953125
2026-09-07T14:47:58.025066,0.531982421875,0.441162109375,0.4737548828125,0.54583740234375,0.01171875,0.015625,0.0546875,0.0,-0.001953125,-0.0078125
2026-09-07T14:47:58.463625,0.53216552734375,0.441162109375,0.4737548828125,0.54559326171875,0.00390625,0.0078125,-0.03125,-0.001953125,-0.001953125,0.001953125
2026-09-07T14:47:58.559792,0.5322265625,0.441162109375,0.47381591796875,0.5455322265625,0.00390625,0.015625,0.0078125,-0.001953125,0.00390625,-0.001953125
2026-09-07T14:47:58.659786,0.53228759765625,0.441162109375,0.47381591796875,0.54547119140625,0.01171875,0.0078125,-0.03125,-0.00390625,-0.001953125,0.00390625
2026-09-07T14:47:58.762947,0.5323486328125,0.441162109375,0.47381591796875,0.54541015625,0.01171875,0.0078125,-0.03125,0.001953125,-0.001953125,-0.001953125
2026-09-07T14:47:58.981622,0.53228759765625,0.44122314453125,0.47381591796875,0.54541015625,-0.02734375,0.0078125,0.015625,0.0078125,-0.001953125,-0.005859375
2026-09-07T14:47:59.079029,0.53228759765625,0.44122314453125,0.473876953125,0.54541015625,0.01171875,-0.10546875,-0.0390625,0.044921875,-0.001953125,-0.015625
2026-09-07T14:47:59.179231,0.5322265625,0.44110107421875,0.473876953125,0.54547119140625,0.05078125,0.046875,0.0234375,0.0,0.0,0.001953125
2026-09-07T14:47:59.280695,0.5321044921875,0.44110107421875,0.4739990234375,0.54559326171875,0.01171875,-0.0390625,-0.0234375,0.00390625,0.001953125,-0.001953125
2026-09-07T14:47:59.378941,0.53204345703125,0.4410400390625,0.4739990234375,0.54559326171875,0.01171875,-0.0390625,-0.015625,-0.001953125,0.0,0.0
2026-09-07T14:47:59.479077,0.53204345703125,0.4410400390625,0.4739990234375,0.545654296875,0.01171875,0.0,-0.0078125,0.005859375,0.0,-0.001953125
2026-09-07T14:47:59.579980,0.53204345703125,0.4410400390625,0.4739990234375,0.545654296875,-0.02734375,0.0,-0.0390625,0.0,0.0,0.001953125
2026-09-07T14:47:59.680391,0.5321044921875,0.4410400390625,0.4739990234375,0.54559326171875,-0.02734375,-0.0390625,0.0078125,0.001953125,0.0,-0.001953125
2026-09-07T14:47:59.771321,0.53216552734375,0.44110107421875,0.4739990234375,0.5455322265625,0.01171875,0.0859375,0.0078125,-0.001953125,0.001953125,0.00390625
2026-09-07T14:47:59.879401,0.5322265625,0.44110107421875,0.47393798828125,0.54547119140625,0.05078125,0.0,0.0078125,-0.001953125,-0.001953125,0.00390625
2026-09-07T14:47:59.976092,0.5322265625,0.441162109375,0.473876953125,0.54547119140625,0.01171875,0.0,-0.0703125,0.001953125,0.0,-0.001953125
2026-09-07T14:48:00.076809,0.53228759765625,0.441162109375,0.473876953125,0.54541015625,0.01171875,0.046875,0.08203125,0.0078125,-0.001953125,0.00390625
2026-09-07T14:48:00.177233,0.53228759765625,0.441162109375,0.473876953125,0.54541015625,0.01171875,0.0,0.03125,-0.00390625,0.0,0.00390625
2026-09-07T14:48:00.275388,0.53216552734375,0.441162109375,0.473876953125,0.5455322265625,0.01171875,-0.03125,-0.015625,-0.0078125,-0.001953125,0.0
2026-09-07T14:48:00.387299,0.53204345703125,0.44110107421875,0.47393798828125,0.545654296875,0.01171875,0.046875,-0.0078125,-0.00390625,0.0,-0.001953125
2026-09-07T14:48:00.487069,0.53204345703125,0.44110107421875,0.47393798828125,0.545654296875,-0.02734375,0.0,0.03125,0.001953125,0.001953125,-0.001953125
2026-09-07T14:48:00.586229,0.531982421875,0.4410400390625,0.4739990234375,0.545654296875,0.01171875,0.0,0.05859375,0.001953125,0.001953125,-0.001953125
2026-09-07T14:48:00.687595,0.531982421875,0.4410400390625,0.47406005859375,0.545654296875,-0.02734375,0.0,0.015625,-0.00390625,0.001953125,0.0078125
2026-09-07T14:48:00.787391,0.53192138671875,0.4410400390625,0.47406005859375,0.54571533203125,-0.02734375,0.0390625,-0.0625,0.0078125,-0.001953125,0.0
2026-09-07T14:48:00.878954,0.5318603515625,0.44097900390625,0.47412109375,0.5457763671875,0.01171875,-0.078125,-0.015625,0.0,0.0,-0.001953125
2026-09-07T14:48:00.989151,0.53179931640625,0.44091796875,0.47418212890625,0.54583740234375,0.01171875,-0.03125,0.015625,-0.005859375,0.0,0.00390625
2026-09-07T14:48:01.087219,0.53173828125,0.44091796875,0.47418212890625,0.54583740234375,0.01171875,0.0078125,0.015625,-0.005859375,-0.001953125,0.001953125
2026-09-07T14:48:01.188422,0.53173828125,0.44091796875,0.47412109375,0.54595947265625,0.01171875,-0.0703125,0.015625,0.0,-0.001953125,0.0
2026-09-07T14:48:01.289114,0.53167724609375,0.44085693359375,0.4742431640625,0.54595947265625,-0.05078125,0.0234375,0.05859375,0.0078125,0.001953125,-0.013671875
2026-09-07T14:48:01.397939,0.5316162109375,0.44085693359375,0.47418212890625,0.5460205078125,-0.00390625,0.0625,0.05859375,0.00390625,-0.001953125,0.00390625
2026-09-07T14:48:01.489508,0.53155517578125,0.44091796875,0.47412109375,0.546142578125,-0.00390625,-0.015625,-0.0234375,-0.005859375,0.0,0.001953125
2026-09-07T14:48:01.597044,0.531494140625,0.44091796875,0.47412109375,0.54620361328125,-0.01171875,0.1015625,-0.0234375,-0.001953125,0.001953125,-0.00390625
2026-09-07T14:48:01.687921,0.53143310546875,0.44091796875,0.47412109375,0.5462646484375,-0.01953125,0.0078125,0.015625,0.001953125,-0.001953125,-0.001953125
2026-09-07T14:48:01.800002,0.5313720703125,0.44091796875,0.47412109375,0.5462646484375,0.01953125,0.015625,-0.0234375,0.001953125,-0.001953125,-0.00390625
2026-09-07T14:48:01.885176,0.5313720703125,0.44091796875,0.47412109375,0.5462646484375,0.05078125,0.015625,-0.015625,0.0,0.001953125,-0.0078125
2026-09-07T14:48:01.986649,0.53143310546875,0.44091796875,0.47418212890625,0.5462646484375,0.01171875,-0.03125,-0.015625,0.0,0.001953125,-0.001953125
2026-09-07T14:48:02.098196,0.53143310546875,0.44085693359375,0.47418212890625,0.54620361328125,0.01171875,-0.03125,-0.0078125,-0.00390625,0.0,-0.005859375
2026-09-07T14:48:02.186243,0.53155517578125,0.44091796875,0.47412109375,0.546142578125,0.01171875,0.015625,0.0,-0.001953125,0.001953125,-0.00390625
2026-09-07T14:48:02.284724,0.5316162109375,0.44097900390625,0.47412109375,0.5460205078125,-0.03515625,-0.03125,-0.0078125,0.005859375,-0.001953125,-0.00390625
2026-09-07T14:48:02.378527,0.5316162109375,0.44091796875,0.47412109375,0.5460205078125,-0.02734375,-0.03125,0.03125,0.001953125,-0.001953125,-0.001953125
2026-09-07T14:48:02.485694,0.53167724609375,0.44091796875,0.47412109375,0.5460205078125,0.01171875,-0.0234375,-0.015625,-0.001953125,-0.001953125,0.00390625
2026-09-07T14:48:02.585768,0.53167724609375,0.44091796875,0.47412109375,0.5460205078125,0.01171875,0.046875,-0.015625,-0.001953125,-0.001953125,-0.005859375
2026-09-07T14:48:02.685077,0.53167724609375,0.44085693359375,0.47412109375,0.5460205078125,-0.02734375,0.0078125,0.0234375,-0.001953125,0.001953125,0.00390625
2026-09-07T14:48:02.785088,0.53167724609375,0.44085693359375,0.47412109375,0.5460205078125,0.01171875,0.046875,-0.015625,0.001953125,-0.001953125,-0.001953125
2026-09-07T14:48:02.877087,0.53167724609375,0.44091796875,0.47412109375,0.54595947265625,0.00390625,0.0390625,-0.015625,0.001953125,0.001953125,-0.00390625
2026-09-07T14:48:02.985556,0.53173828125,0.44091796875,0.47412109375,0.5458984375,-0.03515625,0.0078125,-0.0390625,-0.00390625,-0.001953125,0.00390625
2026-09-07T14:48:03.084944,0.5318603515625,0.44091796875,0.47406005859375,0.54583740234375,0.04296875,0.0078125,0.0078125,0.001953125,0.0,-0.001953125
2026-09-07T14:48:03.185250,0.53192138671875,0.44091796875,0.47406005859375,0.5457763671875,-0.02734375,0.0078125,0.07421875,0.005859375,0.001953125,-0.009765625
2026-09-07T14:48:03.285704,0.53192138671875,0.44091796875,0.47406005859375,0.5457763671875,0.01953125,0.0390625,0.0234375,-0.013671875,0.0,0.005859375
2026-09-07T14:48:03.384895,0.53192138671875,0.44085693359375,0.47412109375,0.54583740234375,0.01171875,0.0,-0.015625,-0.001953125,0.0,0.001953125
2026-09-07T14:48:03.492364,0.5318603515625,0.44091796875,0.47406005859375,0.54583740234375,0.01171875,-0.03125,0.0390625,0.001953125,0.001953125,-0.005859375
2026-09-07T14:48:03.583829,0.53192138671875,0.44091796875,0.47406005859375,0.5457763671875,-0.02734375,0.046875,0.0390625,-0.00390625,0.001953125,-0.001953125
2026-09-07T14:48:03.692201,0.531982421875,0.44091796875,0.47412109375,0.5457763671875,-0.02734375,0.0078125,-0.0078125,-0.001953125,-0.001953125,-0.001953125
2026-09-07T14:48:03.784449,0.531982421875,0.44097900390625,0.47406005859375,0.54571533203125,0.01171875,0.0078125,0.0,0.00390625,0.0,-0.001953125
2026-09-07T14:48:03.892934,0.53204345703125,0.4410400390625,0.4739990234375,0.545654296875,-0.01953125,0.0,0.0078125,-0.005859375,-0.001953125,-0.001953125
2026-09-07T14:48:03.991280,0.53204345703125,0.4410400390625,0.47393798828125,0.545654296875,0.01953125,0.0,-0.0703125,0.0,0.001953125,0.00390625
2026-09-07T14:48:04.091158,0.5321044921875,0.44110107421875,0.473876953125,0.545654296875,0.01953125,0.0078125,0.0546875,-0.001953125,-0.001953125,0.001953125
2026-09-07T14:48:04.190884,0.5321044921875,0.441162109375,0.473876953125,0.545654296875,0.01953125,0.0,0.0078125,0.005859375,0.0,0.001953125
2026-09-07T14:48:04.292935,0.5321044921875,0.441162109375,0.47381591796875,0.545654296875,0.01953125,0.0078125,0.0,0.001953125,-0.001953125,-0.001953125
2026-09-07T14:48:04.389168,0.53204345703125,0.441162109375,0.4737548828125,0.54571533203125,0.01953125,0.046875,0.0078125,0.005859375,0.001953125,-0.001953125
2026-09-07T14:48:04.492913,0.5321044921875,0.44122314453125,0.4737548828125,0.545654296875,-0.02734375,0.0,0.015625,0.009765625,-0.00390625,-0.0078125
2026-09-07T14:48:04.591704,0.5322265625,0.4412841796875,0.4736328125,0.54559326171875,0.05078125,0.0078125,0.0078125,0.001953125,0.0,0.0078125
2026-09-07T14:48:04.693630,0.53228759765625,0.4412841796875,0.4736328125,0.5455322265625,0.01171875,0.046875,0.0078125,-0.001953125,0.001953125,0.00390625
2026-09-07T14:48:04.795798,0.53228759765625,0.4412841796875,0.47369384765625,0.5455322265625,0.01171875,-0.03125,0.03125,0.0,0.0,0.001953125
2026-09-07T14:48:04.879152,0.5323486328125,0.4412841796875,0.47369384765625,0.54547119140625,-0.02734375,0.0078125,0.07421875,0.005859375,-0.001953125,0.00390625
2026-09-07T14:48:04.995857,0.53228759765625,0.44122314453125,0.47369384765625,0.5455322265625,-0.02734375,0.015625,-0.046875,0.001953125,0.0,-0.00390625
2026-09-07T14:48:05.094598,0.53228759765625,0.441162109375,0.47369384765625,0.5455322265625,-0.02734375,-0.0234375,0.0,-0.001953125,-0.001953125,0.0
2026-09-07T14:48:05.194734,0.53228759765625,0.441162109375,0.4737548828125,0.5455322265625,0.01171875,0.046875,-0.03125,0.0,-0.001953125,0.001953125
2026-09-07T14:48:05.295860,0.5323486328125,0.44122314453125,0.4736328125,0.5455322265625,0.01171875,0.046875,-0.03125,0.00390625,0.0,-0.001953125
2026-09-07T14:48:05.394526,0.5323486328125,0.44122314453125,0.4736328125,0.5455322265625,0.00390625,-0.03125,-0.0234375,0.0,-0.001953125,0.001953125
2026-09-07T14:48:05.495379,0.5323486328125,0.441162109375,0.4736328125,0.5455322265625,0.00390625,0.015625,0.015625,-0.00390625,-0.00390625,0.001953125
2026-09-07T14:48:05.595251,0.53240966796875,0.441162109375,0.4736328125,-1.4544677734375,-0.03515625,0.0546875,0.07421875,0.009765625,-0.00390625,0.001953125
2026-09-07T14:48:05.694465,0.53271484375,0.4412841796875,0.47344970703125,0.5452880859375,0.01171875,0.046875,-0.0703125,0.005859375,0.0,0.00390625
2026-09-07T14:48:05.795130,0.53277587890625,0.4412841796875,0.47344970703125,0.54522705078125,0.01953125,0.0078125,-0.015625,0.00390625,0.0,-0.001953125
2026-09-07T14:48:05.894929,0.5328369140625,0.44134521484375,0.473388671875,0.545166015625,0.02734375,-0.0390625,0.0390625,0.005859375,-0.001953125,-0.001953125
2026-09-07T14:48:05.979726,0.5328369140625,0.44140625,0.473388671875,0.54510498046875,0.01171875,-0.078125,0.0390625,0.0,0.0,-0.001953125
2026-09-07T14:48:06.087442,0.532958984375,0.44134521484375,0.473388671875,0.5450439453125,-0.1328125,0.0546875,-0.046875,-0.00390625,0.001953125,-0.005859375
2026-09-07T14:48:06.186406,0.532958984375,0.44146728515625,0.47332763671875,0.5450439453125,0.09765625,0.0390625,0.0234375,0.0,-0.001953125,0.00390625
2026-09-07T14:48:06.286551,0.53289794921875,0.4415283203125,0.4732666015625,0.5450439453125,0.171875,-0.0390625,-0.03125,0.005859375,-0.001953125,0.001953125
2026-09-07T14:48:06.386884,0.53289794921875,0.4415283203125,0.47314453125,0.545166015625,0.28515625,0.015625,0.046875,-0.001953125,0.0,0.001953125
2026-09-07T14:48:06.487114,0.53302001953125,0.4412841796875,0.473388671875,0.5450439453125,0.12890625,-0.0625,0.0,-0.005859375,0.0,0.01171875
2026-09-07T14:48:06.594497,0.53326416015625,0.44073486328125,0.4739990234375,0.54473876953125,0.10546875,0.0234375,0.015625,0.0,-0.001953125,0.001953125
2026-09-07T14:48:06.695845,0.53363037109375,0.44012451171875,0.47454833984375,0.54443359375,0.0,-0.0234375,0.02734375,-0.001953125,0.0,-0.00390625
2026-09-07T14:48:06.794683,0.5338134765625,0.4395751953125,0.4749755859375,0.54425048828125,-0.015625,0.0234375,0.05078125,0.001953125,0.001953125,-0.001953125
2026-09-07T14:48:06.894535,0.5340576171875,0.4390869140625,0.4754638671875,0.54400634765625,0.01171875,0.0546875,0.00390625,0.001953125,0.00390625,0.005859375
2026-09-07T14:48:06.988919,0.5341796875,0.4385986328125,0.47607421875,0.54376220703125,-0.0234375,0.0078125,-0.0234375,-0.001953125,0.0,0.0
2026-09-07T14:48:07.087101,0.53436279296875,0.43804931640625,0.47650146484375,0.5435791015625,0.01953125,-0.0234375,0.01171875,-0.009765625,-0.001953125,0.013671875
2026-09-07T14:48:07.187172,0.53460693359375,0.4373779296875,0.4771728515625,0.54327392578125,0.01171875,0.015625,0.04296875,0.0,0.0,0.001953125
2026-09-07T14:48:07.287836,0.53485107421875,0.43670654296875,0.4779052734375,0.54296875,-0.03125,-0.0234375,0.00390625,0.001953125,-0.00390625,0.001953125
2026-09-07T14:48:07.387125,0.53509521484375,0.43609619140625,0.47845458984375,0.54278564453125,0.01171875,0.015625,-0.0234375,0.0,-0.001953125,0.0
2026-09-07T14:48:07.488471,0.53533935546875,-1.56451416015625,0.4710693359375,0.5426025390625,0.01171875,-0.03125,-0.015625,-0.00390625,-0.001953125,-0.00390625
2026-09-07T14:48:07.703482,0.53582763671875,0.434814453125,0.4796142578125,0.54205322265625,0.00390625,-0.0546875,0.07421875,0.00390625,0.0,0.0
2026-09-07T14:48:07.794921,0.5361328125,0.434326171875,0.47998046875,0.541748046875,0.04296875,-0.015625,0.01953125,0.001953125,-0.001953125,-0.00390625
2026-09-07T14:48:07.903204,0.5362548828125,0.43414306640625,0.48016357421875,0.5416259765625,0.05078125,0.0234375,0.01171875,0.001953125,0.001953125,0.001953125
2026-09-07T14:48:08.001875,0.53668212890625,0.43353271484375,0.48077392578125,0.54119873046875,-0.00390625,0.0234375,0.09765625,-0.00390625,0.001953125,0.0
2026-09-07T14:48:08.101599,0.536865234375,0.43316650390625,0.48114013671875,0.5408935546875,0.01953125,-0.0546875,0.01171875,-0.001953125,0.00390625,-0.00390625
2026-09-07T14:48:08.201557,0.53704833984375,0.425048828125,0.4814453125,0.540771484375,-0.05078125,0.0703125,-0.0234375,0.005859375,-0.001953125,0.005859375
2026-09-07T14:48:08.302336,0.537353515625,0.4326171875,0.48162841796875,0.5404052734375,-0.04296875,-0.03125,0.05859375,0.005859375,-0.001953125,-0.001953125
2026-09-07T14:48:08.401703,0.5374755859375,0.4324951171875,0.4818115234375,0.54034423828125,0.00390625,-0.0625,0.01171875,0.001953125,0.001953125,-0.001953125
2026-09-07T14:48:08.617779,0.53753662109375,0.4322509765625,0.48193359375,0.54034423828125,-0.078125,0.015625,-0.0859375,0.005859375,0.0,-0.001953125
2026-09-07T14:48:08.715361,0.5374755859375,0.4324951171875,0.48175048828125,0.5404052734375,-0.0703125,0.0078125,-0.0625,0.001953125,0.0,-0.005859375
2026-09-07T14:48:08.815209,0.5374755859375,0.4327392578125,0.48150634765625,0.5404052734375,-0.0390625,-0.0234375,-0.046875,0.0,0.0,-0.001953125
2026-09-07T14:48:08.915423,0.5374755859375,0.43310546875,0.481201171875,0.5404052734375,0.0078125,-0.015625,0.0,0.005859375,0.001953125,0.0
2026-09-07T14:48:09.133887,0.537353515625,0.43341064453125,0.48089599609375,0.54052734375,0.13671875,0.0625,-0.0703125,-0.00390625,0.001953125,0.005859375
2026-09-07T14:48:09.232832,0.53717041015625,0.43353271484375,0.4808349609375,0.5406494140625,0.06640625,-0.0625,0.15234375,-0.001953125,0.001953125,-0.00390625
2026-09-07T14:48:09.333878,0.53717041015625,0.43365478515625,0.48077392578125,0.54058837890625,-0.140625,-0.015625,0.0078125,-0.0078125,0.0,0.0
2026-09-07T14:48:09.433237,0.53717041015625,0.43359375,0.4808349609375,0.54058837890625,-0.0390625,0.09375,-0.0546875,0.0,-0.001953125,0.251953125
2026-09-07T14:48:09.539026,0.537109375,0.43353271484375,0.48089599609375,0.5406494140625,0.05078125,-0.0390625,-0.0703125,-0.005859375,0.001953125,0.005859375
2026-09-07T14:48:09.648341,0.5369873046875,0.43353271484375,0.48095703125,0.54071044921875,-0.0546875,-0.03125,0.10546875,-0.00390625,0.0,-0.001953125
2026-09-07T14:48:09.740853,0.53692626953125,0.43365478515625,0.4808349609375,0.540771484375,-0.078125,0.0859375,0.0,-0.001953125,-0.001953125,0.00390625
2026-09-07T14:48:09.849548,0.53692626953125,0.4337158203125,0.4808349609375,0.540771484375,-0.015625,0.0,0.03125,0.00390625,0.001953125,-0.001953125
2026-09-07T14:48:09.948185,0.536865234375,0.4339599609375,0.480712890625,0.54071044921875,-0.0078125,-0.0390625,-0.0078125,-0.001953125,0.0,0.001953125
2026-09-07T14:48:10.032088,0.5367431640625,0.4342041015625,0.48046875,0.5408935546875,-0.03125,0.0546875,-0.046875,-0.00390625,-0.00390625,0.001953125
2026-09-07T14:48:10.239413,0.5364990234375,0.4346923828125,0.48004150390625,0.5411376953125,0.015625,-0.09765625,-0.0703125,0.001953125,0.001953125,0.001953125
2026-09-07T14:48:10.337562,0.536376953125,0.43505859375,0.47967529296875,0.541259765625,-0.0234375,0.0,0.046875,0.001953125,0.0,-0.005859375
2026-09-07T14:48:10.436965,0.53619384765625,0.43524169921875,0.4794921875,0.54144287109375,-0.0234375,-0.015625,-0.0078125,-0.005859375,-0.00390625,0.001953125
2026-09-07T14:48:10.537082,0.5360107421875,0.435302734375,0.4793701171875,0.54168701171875,0.0234375,0.0078125,-0.0546875,-0.005859375,0.001953125,0.0
2026-09-07T14:48:10.637505,0.53570556640625,0.4354248046875,0.4793701171875,0.54193115234375,-0.0078125,0.0390625,0.05859375,0.001953125,0.00390625,0.00390625
2026-09-07T14:48:10.737220,0.53546142578125,0.435546875,0.47930908203125,0.54205322265625,-0.0390625,-0.0078125,-0.0390625,0.0,0.001953125,0.0
2026-09-07T14:48:10.837260,0.53509521484375,0.43560791015625,0.47930908203125,0.54241943359375,-0.03125,-0.11328125,-0.03125,-0.001953125,-0.001953125,0.001953125
2026-09-07T14:48:10.937087,0.53472900390625,0.4356689453125,0.47918701171875,0.54278564453125,-0.05859375,0.0234375,-0.0234375,-0.00390625,0.0,0.0
2026-09-07T14:48:11.037263,0.5345458984375,0.43572998046875,0.47918701171875,0.54296875,0.0234375,0.0546875,-0.015625,0.0,0.00390625,-0.001953125
2026-09-07T14:48:11.137255,0.53436279296875,0.435791015625,0.47918701171875,0.54302978515625,-0.09765625,-0.0390625,0.13671875,0.001953125,0.001953125,0.00390625
2026-09-07T14:48:11.236854,0.53448486328125,0.42822265625,0.47900390625,0.54290771484375,-0.03515625,0.046875,0.03515625,0.0078125,-0.001953125,0.001953125
2026-09-07T14:48:11.336450,0.5345458984375,0.4361572265625,0.478759765625,0.54296875,0.03125,0.0078125,-0.0234375,0.0,-0.001953125,0.005859375
2026-09-07T14:48:11.880910,0.5345458984375,0.4361572265625,0.478759765625,0.54296875,0.03125,0.0078125,-0.0234375,-0.001953125,-0.001953125,-0.001953125
2026-09-07T14:48:11.981036,0.5345458984375,0.4361572265625,0.478759765625,0.54296875,0.03125,0.0078125,-0.0234375,-0.001953125,-0.001953125,-0.001953125
2026-09-07T14:48:12.081176,0.5345458984375,0.4361572265625,0.478759765625,0.54296875,0.03125,0.0078125,-0.0234375,-0.001953125,-0.001953125,-0.001953125
2026-09-07T14:48:12.181261,0.5345458984375,0.4361572265625,0.478759765625,0.54296875,0.03125,0.0078125,-0.0234375,-0.001953125,-0.001953125,-0.001953125
2026-09-07T14:48:12.281684,0.5345458984375,0.4361572265625,0.478759765625,0.54296875,0.03125,0.0078125,-0.0234375,-0.001953125,-0.001953125,-0.001953125
2026-09-07T14:48:12.381544,0.5345458984375,0.4361572265625,0.478759765625,0.54296875,0.03125,0.0078125,-0.0234375,-0.001953125,-0.001953125,-0.001953125
2026-09-07T14:48:12.481615,0.5345458984375,0.4361572265625,0.478759765625,0.54296875,0.03125,0.0078125,-0.0234375,-0.001953125,-0.001953125,-0.001953125
2026-09-07T14:48:12.581949,0.5345458984375,0.4361572265625,0.478759765625,0.54296875,0.03125,0.0078125,-0.0234375,-0.001953125,-0.001953125,-0.001953125
2026-09-07T14:48:12.682876,0.5345458984375,0.4361572265625,0.478759765625,0.54296875,0.03125,0.0078125,-0.0234375,-0.001953125,-0.001953125,-0.001953125
2026-09-07T14:48:12.782946,0.5345458984375,0.4361572265625,0.478759765625,0.54296875,0.03125,0.0078125,-0.0234375,-0.001953125,-0.001953125,-0.001953125
2026-09-07T14:48:12.883120,0.5345458984375,0.4361572265625,0.478759765625,0.54296875,0.03125,0.0078125,-0.0234375,-0.001953125,-0.001953125,-0.001953125
2026-09-07T14:48:12.983539,0.5345458984375,0.4361572265625,0.478759765625,0.54296875,0.03125,0.0078125,-0.0234375,-0.001953125,-0.001953125,-0.001953125
2026-09-07T14:48:13.082396,0.5345458984375,0.4361572265625,0.478759765625,0.54296875,0.03125,0.0078125,-0.0234375,-0.001953125,-0.001953125,-0.001953125
2026-09-07T14:48:13.182916,0.5345458984375,0.4361572265625,0.478759765625,0.54296875,0.03125,0.0078125,-0.0234375,-0.001953125,-0.001953125,-0.001953125
2026-09-07T14:48:13.282755,0.5345458984375,0.4361572265625,0.478759765625,0.54296875,0.03125,0.0078125,-0.0234375,-0.001953125,-0.001953125,-0.001953125
2026-09-07T14:48:13.382769,0.5345458984375,0.4361572265625,0.478759765625,0.54296875,0.03125,0.0078125,-0.0234375,-0.001953125,-0.001953125,-0.001953125
2026-09-07T14:48:13.483112,0.5345458984375,0.4361572265625,0.478759765625,0.54296875,0.03125,0.0078125,-0.0234375,-0.001953125,-0.001953125,-0.001953125
2026-09-07T14:48:13.582962,0.5345458984375,0.4361572265625,0.478759765625,0.54296875,0.03125,0.0078125,-0.0234375,-0.001953125,-0.001953125,-0.001953125
2026-09-07T14:48:13.683298,0.5345458984375,0.4361572265625,0.478759765625,0.54296875,0.03125,0.0078125,-0.0234375,-0.001953125,-0.001953125,-0.001953125
2026-09-07T14:48:15.661127,0.51300048828125,0.4781494140625,0.44976806640625,0.55303955078125,0.27734375,-0.4609375,-0.1328125,0.046875,0.0,0.056640625
2026-09-07T14:48:15.760777,0.52301025390625,0.48150634765625,0.4478759765625,0.534423828125,0.12109375,-0.828125,0.5625,-0.046875,0.013671875,0.029296875
2026-09-07T14:48:15.860006,0.52813720703125,0.48248291015625,0.447998046875,0.5362548828125,-0.140625,-0.87890625,1.10546875,-0.052734375,-0.005859375,0.015625
2026-09-07T14:48:15.961464,0.52752685546875,0.4805908203125,0.44952392578125,0.53729248046875,-0.1953125,-0.55078125,1.35546875,-0.03515625,-0.015625,0.01953125
2026-09-07T14:48:16.060949,0.52752685546875,0.47900390625,0.450439453125,0.53790283203125,0.05078125,-0.2890625,1.43359375,-0.001953125,-0.015625,0.021484375
2026-09-07T14:48:16.161296,0.52874755859375,0.469970703125,0.45068359375,0.53759765625,0.546875,-0.3828125,1.140625,0.017578125,-0.03125,0.033203125
2026-09-07T14:48:16.260490,0.5308837890625,0.47625732421875,0.45037841796875,0.537109375,0.82421875,-0.55078125,0.94921875,-0.005859375,-0.05078125,0.03125
2026-09-07T14:48:16.360345,0.5328369140625,0.4739990234375,0.4498291015625,0.53765869140625,0.71484375,-0.48828125,1.171875,-0.015625,-0.064453125,0.025390625
2026-09-07T14:48:16.461531,0.5345458984375,0.4713134765625,0.44903564453125,0.53900146484375,0.37109375,-0.3125,1.90625,-0.0234375,-0.076171875,0.021484375
2026-09-07T14:48:16.560749,0.53631591796875,0.46826171875,0.44793701171875,0.54083251953125,-0.32421875,0.1484375,0.49609375,-0.009765625,-0.09765625,0.01953125
2026-09-07T14:48:16.660095,0.534912109375,0.4459228515625,0.46405029296875,0.54742431640625,-0.16015625,0.109375,0.37890625,-0.005859375,-0.115234375,0.025390625
2026-09-07T14:48:16.761822,0.53509521484375,0.43328857421875,0.46978759765625,0.552490234375,-0.26953125,0.24609375,-0.08984375,-0.015625,-0.138671875,0.033203125
2026-09-07T14:48:16.860873,0.53765869140625,0.42626953125,0.46905517578125,0.55609130859375,-0.21484375,0.1015625,-0.01171875,-0.0390625,-0.162109375,0.068359375
2026-09-07T14:48:16.961251,0.5418701171875,0.41912841796875,0.46710205078125,0.55908203125,0.2109375,-0.3515625,0.3671875,-0.033203125,-0.185546875,0.064453125
2026-09-07T14:48:17.183569,0.551025390625,0.40338134765625,0.46099853515625,0.56671142578125,0.1484375,-0.11328125,0.28515625,-0.041015625,-0.228515625,0.04296875
2026-09-07T14:48:17.282707,0.5516357421875,0.38330078125,0.46185302734375,0.5792236328125,0.015625,-0.0625,-0.01953125,-0.046875,-0.24609375,0.044921875
2026-09-07T14:48:17.377040,0.55322265625,0.36920166015625,0.46148681640625,0.58709716796875,-0.109375,0.25,-0.01953125,-0.08203125,-0.267578125,0.048828125
2026-09-07T14:48:17.483118,0.55584716796875,0.35552978515625,0.459228515625,0.5947265625,-0.0546875,0.234375,0.02734375,-0.0703125,-0.28515625,0.044921875
2026-09-07T14:48:17.581765,0.5595703125,0.34259033203125,0.45526123046875,0.60186767578125,0.203125,-0.05078125,0.62890625,-0.05078125,-0.291015625,0.005859375
2026-09-07T14:48:17.682264,0.56439208984375,0.33221435546875,0.4486083984375,0.60809326171875,0.01953125,-0.1171875,0.94140625,-0.00390625,-0.26953125,-0.0390625
2026-09-07T14:48:17.781205,0.5699462890625,0.32476806640625,0.43988037109375,0.61334228515625,-0.6484375,0.1328125,1.36328125,0.123046875,-0.30859375,-0.05078125
2026-09-07T14:48:17.882152,0.57861328125,0.31854248046875,-1.57183837890625,0.61676025390625,-0.71875,0.30859375,-0.3046875,0.04296875,-0.318359375,-0.03125
2026-09-07T14:48:17.980515,0.5859375,0.31005859375,0.41796875,0.62115478515625,-1.015625,0.07421875,-0.33203125,0.0078125,-0.3046875,0.005859375
2026-09-07T14:48:18.082531,0.59283447265625,0.3006591796875,0.40869140625,0.62542724609375,-0.54296875,-0.40234375,-0.44140625,0.044921875,-0.375,-0.025390625
2026-09-07T14:48:18.181174,0.59906005859375,0.28973388671875,0.39697265625,0.63214111328125,0.62109375,0.27734375,-1.265625,-0.0390625,-0.373046875,-0.07421875
2026-09-07T14:48:18.274283,0.601806640625,0.2786865234375,0.38519287109375,0.6417236328125,0.05078125,0.27734375,-0.1875,-0.08984375,-0.341796875,-0.095703125
2026-09-07T14:48:18.379750,0.60308837890625,0.268798828125,0.374267578125,0.651123046875,0.03515625,0.125,-0.1328125,-0.060546875,-0.318359375,-0.091796875
2026-09-07T14:48:18.474194,0.606201171875,0.2591552734375,0.36199951171875,0.65899658203125,-1.05078125,-0.3046875,0.80859375,-0.029296875,-0.361328125,-0.083984375
2026-09-07T14:48:18.582095,0.61383056640625,0.2431640625,0.3414306640625,0.66900634765625,-0.69140625,-0.734375,0.96875,0.015625,-0.3828125,-0.08203125
2026-09-07T14:48:18.680702,0.61651611328125,0.2376708984375,0.3343505859375,0.6719970703125,-0.578125,0.1875,0.28125,0.005859375,-0.3828125,-0.06640625
2026-09-07T14:48:18.778933,0.6217041015625,0.22613525390625,0.32086181640625,0.67779541015625,-0.32421875,0.4921875,-0.31640625,-0.00390625,-0.388671875,-0.05859375
2026-09-07T14:48:18.889223,0.62774658203125,0.20758056640625,0.2991943359375,0.68792724609375,-0.18359375,-0.5390625,0.55859375,-0.037109375,-0.41015625,-0.07421875
2026-09-07T14:48:18.989264,0.63201904296875,0.196044921875,0.283203125,0.6942138671875,-0.4921875,0.1015625,0.45703125,-0.001953125,-0.416015625,-0.07421875
2026-09-07T14:48:19.092578,0.63330078125,0.1900634765625,0.2755126953125,0.69781494140625,-0.375,-0.04296875,0.43359375,-0.05078125,-0.40625,-0.076171875
2026-09-07T14:48:19.191251,0.636962890625,0.177734375,0.2598876953125,0.70367431640625,-0.53515625,0.0625,0.86328125,0.009765625,-0.42578125,-0.0625
2026-09-07T14:48:19.292090,0.64190673828125,0.16461181640625,0.2437744140625,0.7081298828125,-0.17578125,0.29296875,0.3125,0.005859375,-0.4375,-0.06640625
2026-09-07T14:48:19.391927,0.6448974609375,0.15118408203125,0.2276611328125,0.7137451171875,-0.14453125,0.02734375,0.59375,-0.029296875,-0.4296875,-0.064453125
2026-09-07T14:48:19.492764,0.647705078125,0.13787841796875,0.211669921875,0.71881103515625,-0.17578125,-0.01171875,0.2421875,-0.013671875,-0.427734375,-0.060546875
2026-09-07T14:48:19.592113,0.64923095703125,0.1243896484375,0.19537353515625,0.72442626953125,-0.2265625,-0.203125,0.74609375,-0.05078125,-0.43359375,-0.07421875
2026-09-07T14:48:19.692887,0.65142822265625,0.11065673828125,0.1790771484375,0.7288818359375,-0.296875,-0.08984375,0.6640625,-0.001953125,-0.4296875,-0.052734375
2026-09-07T14:48:19.791664,0.654052734375,0.09686279296875,0.16351318359375,0.732177734375,-0.06640625,-0.2421875,0.31640625,0.0,-0.41796875,-0.044921875
2026-09-07T14:48:19.890991,0.656982421875,0.0836181640625,0.14862060546875,0.734375,-0.02734375,0.2109375,-0.26953125,0.037109375,-0.404296875,-0.03125
2026-09-07T14:48:19.999291,0.6591796875,0.070556640625,0.13482666015625,0.7364501953125,0.25390625,0.09375,-0.4921875,0.0078125,-0.37109375,-0.03125
2026-09-07T14:48:20.092052,0.659423828125,0.05841064453125,0.1226806640625,0.7393798828125,0.00390625,-0.36328125,0.00390625,-0.017578125,-0.328125,-0.03125
2026-09-07T14:48:20.201611,0.6595458984375,0.04705810546875,0.1109619140625,0.74188232421875,-0.44921875,0.640625,-0.5859375,-0.0234375,-0.32421875,-0.03515625
2026-09-07T14:48:20.291901,0.658447265625,0.03607177734375,0.0997314453125,0.7451171875,0.64453125,1.55859375,-1.0390625,-0.0703125,-0.28515625,-0.0390625
2026-09-07T14:48:20.388747,0.6563720703125,0.02642822265625,0.0897216796875,0.7486572265625,0.0234375,-0.15625,0.39453125,-0.056640625,-0.259765625,-0.01953125
2026-09-07T14:48:20.491174,0.657470703125,0.0189208984375,0.08026123046875,0.74896240234375,-0.04296875,-0.48046875,0.51171875,0.056640625,-0.23828125,-0.052734375
2026-09-07T14:48:20.590613,0.6590576171875,0.01116943359375,0.07012939453125,0.74871826171875,-0.12109375,-0.09765625,-0.0546875,0.013671875,-0.265625,-0.04296875
2026-09-07T14:48:20.689898,0.66015625,0.00250244140625,0.060302734375,0.74871826171875,-0.08203125,0.09375,-0.59765625,0.009765625,-0.251953125,-0.0390625
2026-09-07T14:48:20.798528,0.66046142578125,-0.00555419921875,0.0518798828125,0.7490234375,0.09375,0.24609375,-0.4296875,-0.009765625,-0.220703125,-0.025390625
2026-09-07T14:48:20.885256,0.6600341796875,-0.01263427734375,0.0440673828125,0.74981689453125,0.24609375,-0.1796875,0.02734375,-0.005859375,-0.208984375,-0.025390625
2026-09-07T14:48:20.986269,0.66009521484375,-0.01953125,0.0361328125,0.75006103515625,0.21484375,0.23828125,-0.4140625,-0.00390625,-0.2109375,-0.037109375
2026-09-07T14:48:21.208887,0.6610107421875,-0.03155517578125,0.021240234375,0.7493896484375,-0.0078125,0.38671875,-1.15625,0.01171875,-0.158203125,-0.02734375
2026-09-07T14:48:21.307617,0.66192626953125,-0.0362548828125,0.016357421875,0.74847412109375,-0.2890625,-0.04296875,-0.6875,0.037109375,-0.1171875,-0.001953125
2026-09-07T14:48:21.407324,0.6632080078125,-0.04052734375,0.01251220703125,0.7471923828125,0.0859375,0.609375,-1.0234375,0.005859375,-0.1015625,-0.01171875
2026-09-07T14:48:21.507906,0.66375732421875,-0.04412841796875,0.009033203125,0.74664306640625,0.27734375,0.4453125,-1.33203125,0.0,-0.076171875,-0.017578125
2026-09-07T14:48:21.607528,0.66387939453125,-0.04638671875,0.0062255859375,0.74639892578125,0.19921875,0.25390625,-0.83984375,-0.01953125,-0.04296875,-0.00390625
2026-09-07T14:48:21.707087,0.66375732421875,-0.048095703125,0.0048828125,0.74639892578125,-0.08203125,0.1796875,-0.77734375,0.009765625,-0.03125,0.001953125
2026-09-07T14:48:21.814258,0.66400146484375,-0.04962158203125,0.004150390625,0.74609375,0.0234375,-0.09765625,-0.32421875,-0.0234375,-0.03125,-0.00390625
2026-09-07T14:48:21.906611,0.66400146484375,-0.0511474609375,0.00244140625,0.7459716796875,0.17578125,-0.2109375,-0.73046875,-0.009765625,-0.03125,-0.013671875
2026-09-07T14:48:22.006953,0.66436767578125,-0.0518798828125,0.00189208984375,0.74560546875,0.09375,0.23828125,-0.1953125,0.025390625,-0.037109375,-0.005859375
2026-09-07T14:48:22.107324,0.66546630859375,-0.05328369140625,0.00103759765625,0.7445068359375,0.12109375,0.5078125,-0.5859375,0.01953125,-0.01953125,-0.001953125
2026-09-07T14:48:22.214679,0.66668701171875,-0.05438232421875,0.000732421875,0.74334716796875,0.40625,0.26953125,-0.69140625,0.013671875,-0.001953125,0.009765625
2026-09-07T14:48:22.306635,0.66839599609375,-0.05535888671875,0.001220703125,0.74169921875,0.359375,0.0703125,-0.56640625,0.015625,-0.0078125,-0.00390625
2026-09-07T14:48:22.414405,0.66864013671875,-0.05560302734375,0.00103759765625,0.74151611328125,0.58203125,-0.234375,-0.8515625,0.005859375,-0.009765625,0.01953125
2026-09-07T14:48:22.513478,0.67529296875,-0.0579833984375,0.00152587890625,0.73529052734375,0.05078125,1.1328125,-0.12890625,-0.017578125,0.0,0.005859375
2026-09-07T14:48:22.601452,0.67498779296875,-0.05816650390625,0.00958251953125,0.73553466796875,0.125,0.46875,-0.296875,-0.0234375,0.00390625,0.0078125
2026-09-07T14:48:22.715520,0.6749267578125,-0.058349609375,0.0020751953125,0.735595703125,0.578125,-0.2734375,-0.3203125,-0.017578125,0.001953125,-0.0078125
2026-09-07T14:48:22.813533,0.67486572265625,-0.05810546875,0.00189208984375,0.735595703125,0.46875,-0.15234375,-0.25,-0.013671875,0.005859375,0.005859375
2026-09-07T14:48:22.914797,0.6739501953125,-0.05804443359375,0.002197265625,0.73651123046875,0.05078125,0.546875,0.22265625,0.0,0.009765625,0.005859375
2026-09-07T14:48:23.014558,0.6744384765625,-0.05859375,0.01104736328125,0.73602294921875,0.15625,-1.31640625,0.31640625,0.029296875,0.00390625,-0.0078125
2026-09-07T14:48:23.122798,0.67626953125,-0.0592041015625,0.00421142578125,0.7342529296875,0.66015625,-0.08203125,0.56640625,-0.01171875,-0.001953125,0.01953125
2026-09-07T14:48:23.212248,0.678955078125,-0.06011962890625,0.00494384765625,0.731689453125,0.37109375,-0.7265625,-0.56640625,-0.037109375,-0.001953125,0.013671875
2026-09-07T14:48:23.322867,0.683837890625,-0.06256103515625,0.0069580078125,0.7269287109375,0.140625,0.5,0.0,-0.037109375,0.01171875,-0.005859375
2026-09-07T14:48:23.414004,0.68487548828125,-0.06280517578125,0.00762939453125,0.72589111328125,-0.49609375,1.14453125,-0.19140625,-0.05078125,0.01171875,0.0078125
2026-09-07T14:48:23.522815,0.68450927734375,-0.06243896484375,0.00811767578125,0.72625732421875,-0.33203125,-0.3515625,0.64453125,0.025390625,0.01953125,0.0234375
2026-09-07T14:48:23.612975,0.68505859375,-0.06280517578125,0.010009765625,0.7257080078125,0.1796875,0.1875,0.453125,0.033203125,0.01171875,0.001953125
2026-09-07T14:48:23.723949,0.6866455078125,-0.06292724609375,0.0111083984375,0.72418212890625,0.25390625,-0.6953125,-0.4296875,0.013671875,0.00390625,-0.001953125
2026-09-07T14:48:23.821470,0.68701171875,-0.06298828125,0.01123046875,0.72381591796875,-0.08203125,0.5703125,-0.17578125,0.005859375,0.0078125,-0.029296875
2026-09-07T14:48:23.913603,0.68731689453125,-0.06280517578125,0.01129150390625,0.72357177734375,-0.48828125,0.953125,-0.22265625,-0.015625,0.009765625,-0.021484375
2026-09-07T14:48:24.010426,0.68695068359375,-0.06219482421875,0.0111083984375,0.72393798828125,-0.78515625,0.22265625,-0.16015625,0.017578125,0.001953125,-0.01953125
2026-09-07T14:48:24.122849,0.687744140625,-0.06170654296875,0.01104736328125,0.7232666015625,-0.84765625,0.29296875,0.0703125,-0.00390625,0.00390625,-0.009765625
2026-09-07T14:48:24.221603,0.68768310546875,-0.061767578125,0.01116943359375,0.72332763671875,-0.44921875,0.1328125,0.22265625,0.021484375,0.005859375,0.013671875
2026-09-07T14:48:24.321794,0.68841552734375,-0.0625,0.01214599609375,0.72247314453125,-0.30078125,-0.2578125,-0.0703125,0.01171875,-0.001953125,0.009765625
2026-09-07T14:48:24.420628,0.68896484375,-0.062255859375,0.0123291015625,0.72198486328125,-0.75390625,0.39453125,0.09375,0.005859375,0.0078125,-0.025390625
2026-09-07T14:48:24.506780,0.68902587890625,-0.06182861328125,0.01202392578125,0.72198486328125,-0.80859375,0.23046875,-0.24609375,0.013671875,0.005859375,-0.009765625
2026-09-07T14:48:24.608195,0.68963623046875,-0.061279296875,0.01190185546875,0.721435546875,-0.15625,0.421875,-0.19921875,-0.001953125,0.00390625,0.017578125
2026-09-07T14:48:24.708869,0.68994140625,-0.061279296875,-1.98773193359375,0.72119140625,-0.1015625,0.109375,-0.0390625,-0.001953125,0.001953125,0.01171875
2026-09-07T14:48:24.809323,0.69012451171875,-0.0611572265625,0.01239013671875,0.72100830078125,0.04296875,-1.0390625,0.34765625,0.0078125,0.001953125,0.013671875
2026-09-07T14:48:24.908923,0.6907958984375,-0.0604248046875,0.01226806640625,0.720458984375,0.1640625,-0.0078125,-0.40625,0.009765625,0.015625,-0.021484375
2026-09-07T14:48:25.024051,0.6922607421875,-0.05828857421875,0.01165771484375,0.71917724609375,-0.33984375,-0.16015625,-0.2421875,0.013671875,0.015625,-0.03125
2026-09-07T14:48:25.122715,0.6925048828125,-0.0570068359375,0.01165771484375,0.71905517578125,0.18359375,0.68359375,-0.703125,-0.03125,0.01953125,-0.017578125
2026-09-07T14:48:25.221560,0.69195556640625,-0.05548095703125,0.01129150390625,0.7197265625,-0.36328125,-0.20703125,-0.07421875,-0.01171875,0.015625,0.005859375
2026-09-07T14:48:25.323454,0.69183349609375,-0.0548095703125,0.01165771484375,0.71990966796875,-0.3828125,-0.55078125,0.19140625,-0.015625,0.0078125,0.03515625
2026-09-07T14:48:25.422213,0.692138671875,-0.0543212890625,0.01220703125,0.7196044921875,-0.5390625,-0.16796875,0.30859375,0.021484375,0.021484375,-0.00390625
2026-09-07T14:48:25.523213,0.69354248046875,-0.05377197265625,0.01275634765625,0.71826171875,-0.1171875,0.21484375,0.1875,0.037109375,0.01171875,0.0
2026-09-07T14:48:25.622888,0.69384765625,-0.053466796875,0.01287841796875,0.718017578125,-0.484375,0.4375,-0.44921875,-0.0078125,-0.001953125,0.00390625
2026-09-07T14:48:25.723678,0.69366455078125,-0.0531005859375,0.0130615234375,0.71820068359375,-0.0625,0.1328125,-0.1875,-0.025390625,0.009765625,0.029296875
2026-09-07T14:48:25.822067,0.69354248046875,-0.0523681640625,0.013671875,0.7183837890625,0.18359375,-1.0625,0.31640625,0.041015625,0.02734375,-0.0703125
2026-09-07T14:48:25.922778,0.6934814453125,-0.05169677734375,0.0142822265625,0.71844482421875,-0.8125,0.8515625,-0.37890625,0.025390625,0.015625,-0.001953125
2026-09-07T14:48:26.023674,0.6937255859375,-0.05108642578125,0.0146484375,0.71826171875,0.03125,0.546875,-0.6484375,-0.005859375,0.013671875,0.0078125
2026-09-07T14:48:26.124389,0.69403076171875,-0.05010986328125,0.0146484375,0.718017578125,-0.64453125,0.578125,0.23828125,0.0078125,0.015625,-0.005859375
2026-09-07T14:48:26.223666,0.6943359375,-0.04876708984375,0.014404296875,0.71783447265625,-0.3203125,-0.11328125,0.0546875,0.0234375,0.015625,-0.0546875
2026-09-07T14:48:26.314641,0.69403076171875,-0.048095703125,0.01434326171875,0.71820068359375,-0.4140625,0.078125,0.81640625,0.017578125,0.005859375,0.041015625
2026-09-07T14:48:26.413792,0.69427490234375,-0.04754638671875,0.01483154296875,0.71795654296875,0.359375,-0.12109375,0.32421875,-0.017578125,0.017578125,-0.25390625
2026-09-07T14:48:26.513760,0.69415283203125,-0.04669189453125,0.014892578125,0.7181396484375,-0.19921875,0.4921875,-0.3046875,-0.005859375,0.013671875,-0.017578125
2026-09-07T14:48:26.613931,0.69415283203125,-0.04595947265625,0.01507568359375,0.71820068359375,-0.6640625,0.13671875,0.046875,0.00390625,0.013671875,0.03125
2026-09-07T14:48:26.717788,0.6943359375,-0.04620361328125,0.01666259765625,0.71795654296875,-0.40625,-0.13671875,-0.1796875,0.01171875,0.015625,0.0078125
2026-09-07T14:48:26.820439,0.69512939453125,-0.04510498046875,0.016357421875,0.71728515625,0.0234375,0.4375,-0.47265625,0.03515625,0.009765625,-0.01953125
2026-09-07T14:48:26.921730,0.695068359375,-0.04400634765625,0.01617431640625,0.7174072265625,-0.3359375,0.58203125,-0.08203125,-0.041015625,0.017578125,0.009765625
2026-09-07T14:48:27.020962,0.69525146484375,-0.04296875,0.01629638671875,0.71728515625,-0.40625,0.23828125,-0.01171875,-0.001953125,0.009765625,0.017578125
2026-09-07T14:48:27.122847,0.694580078125,-0.04144287109375,0.015869140625,0.718017578125,-0.375,-0.15234375,-0.13671875,-0.017578125,0.01953125,-0.0078125
2026-09-07T14:48:27.221626,0.695068359375,-0.040283203125,0.015625,0.7176513671875,-0.265625,-0.8046875,0.66015625,-0.00390625,0.015625,-0.0078125
2026-09-07T14:48:27.321850,0.6954345703125,-0.03900146484375,0.01513671875,0.71734619140625,-0.2890625,0.30859375,-0.3125,0.021484375,0.009765625,-0.01953125
2026-09-07T14:48:27.422049,0.694580078125,-0.03753662109375,0.01416015625,0.71832275390625,-0.33203125,-0.3046875,0.80859375,-0.072265625,0.01171875,-0.00390625
2026-09-07T14:48:27.521209,0.695068359375,-0.036376953125,0.0133056640625,0.71795654296875,-0.5390625,-0.23046875,0.30859375,0.01953125,0.0078125,-0.029296875
2026-09-07T14:48:27.621446,0.69451904296875,-0.035400390625,0.01263427734375,0.71844482421875,-0.66015625,0.23046875,-0.00390625,-0.009765625,0.005859375,-0.017578125
2026-09-07T14:48:27.722301,0.69390869140625,-0.03472900390625,0.0125732421875,0.7191162109375,-0.64453125,0.31640625,0.1796875,-0.025390625,0.013671875,-0.005859375
2026-09-07T14:48:27.821786,0.6934814453125,-0.034912109375,0.012451171875,0.71954345703125,-0.79296875,0.69140625,0.19140625,-0.005859375,-0.005859375,0.025390625
2026-09-07T14:48:27.921662,0.6934814453125,-0.03497314453125,0.0123291015625,0.719482421875,-0.36328125,-0.84375,0.796875,-0.041015625,-0.005859375,0.087890625
2026-09-07T14:48:28.021237,0.69384765625,-0.03411865234375,0.0115966796875,0.71923828125,-0.1875,-0.3125,-0.12109375,0.001953125,-0.00390625,-0.005859375
2026-09-07T14:48:28.113099,0.6947021484375,-0.03314208984375,0.01019287109375,0.71844482421875,-0.56640625,-0.03125,-0.25,0.017578125,-0.009765625,0.001953125
2026-09-07T14:48:28.212752,0.6949462890625,-0.03204345703125,0.0089111328125,0.71832275390625,-0.84375,0.62109375,-0.5859375,0.0078125,0.001953125,-0.033203125
2026-09-07T14:48:28.423266,0.6947021484375,-0.03125,0.00775146484375,0.71856689453125,-0.75,-0.3828125,-0.3359375,0.009765625,-0.00390625,0.02734375
2026-09-07T14:48:28.521917,0.69500732421875,-0.03070068359375,0.0072021484375,0.71832275390625,-0.3828125,0.18359375,0.1015625,0.001953125,-0.001953125,0.01171875
2026-09-07T14:48:28.621992,0.69537353515625,-0.0299072265625,0.00653076171875,0.71795654296875,-0.609375,0.0390625,-0.08984375,0.017578125,0.001953125,0.00390625
2026-09-07T14:48:28.738376,0.69580078125,-0.02899169921875,0.00531005859375,0.7176513671875,-1.0078125,0.5,-0.04296875,0.013671875,-0.005859375,-0.013671875
2026-09-07T14:48:28.836543,0.69549560546875,-0.02825927734375,0.0042724609375,0.718017578125,-0.50390625,-0.16796875,-0.2421875,0.005859375,-0.005859375,0.017578125
2026-09-07T14:48:28.935160,0.69549560546875,-0.02886962890625,0.00469970703125,0.71795654296875,-0.11328125,-0.4765625,0.078125,0.0078125,-0.00390625,0.025390625
2026-09-07T14:48:29.035929,0.69610595703125,-0.028564453125,0.00408935546875,0.71734619140625,-0.2734375,-0.46875,-0.41015625,0.009765625,-0.00390625,-0.03125
2026-09-07T14:48:29.121354,0.6962890625,-0.02752685546875,0.00274658203125,0.71722412109375,-0.02734375,-0.54296875,-0.2890625,-0.00390625,0.0,-0.009765625
2026-09-07T14:48:29.221469,0.6962890625,-0.02593994140625,0.00115966796875,0.71728515625,-0.01953125,0.30078125,-0.41015625,-0.017578125,0.001953125,-0.0390625
2026-09-07T14:48:29.321889,0.696044921875,-0.0242919921875,-0.0003662109375,0.71759033203125,-0.73828125,0.375,0.15625,-0.021484375,0.001953125,-0.01171875
2026-09-07T14:48:29.428831,0.6953125,-0.02374267578125,-0.00079345703125,0.71826171875,-0.57421875,0.453125,-0.09765625,-0.021484375,0.0,0.01171875
2026-09-07T14:48:29.521327,0.695068359375,-0.0240478515625,-0.0006103515625,0.71856689453125,-0.4921875,-0.4765625,-0.12890625,0.068359375,-0.01171875,-0.021484375
2026-09-07T14:48:29.638227,0.69580078125,-0.0240478515625,-0.00128173828125,0.71783447265625,-0.7578125,-0.359375,-0.02734375,0.009765625,-0.01171875,0.03125
2026-09-07T14:48:29.736316,0.6964111328125,-0.02215576171875,-0.00347900390625,0.71734619140625,-0.64453125,0.29296875,0.4765625,0.0234375,-0.005859375,-0.0234375
2026-09-07T14:48:29.836798,0.69671630859375,-0.02044677734375,-0.0054931640625,0.717041015625,-0.75,0.828125,-0.12890625,0.013671875,-0.0078125,-0.03125
2026-09-07T14:48:29.936655,0.69677734375,-0.01885986328125,-0.00762939453125,0.71697998046875,-1.0546875,0.75,0.41015625,0.015625,-0.005859375,-0.013671875
2026-09-07T14:48:30.031585,0.6971435546875,-0.018310546875,-0.00860595703125,0.7166748046875,-0.38671875,-0.66796875,-0.1640625,-0.02734375,-0.005859375,0.015625
2026-09-07T14:48:30.128281,0.69671630859375,-0.0184326171875,-0.00909423828125,0.71710205078125,-0.9609375,-0.484375,0.4765625,-0.021484375,-0.021484375,0.025390625
2026-09-07T14:48:30.228419,0.69683837890625,-0.01861572265625,-0.010498046875,0.7169189453125,-0.546875,-0.328125,-0.203125,0.0234375,-0.02734375,0.0078125
2026-09-07T14:48:30.328613,0.69744873046875,-0.01800537109375,-0.01275634765625,0.71630859375,-0.1640625,-0.0546875,-0.234375,0.0,-0.013671875,0.0
2026-09-07T14:48:30.428582,0.6981201171875,-0.017333984375,-0.01446533203125,0.71563720703125,-0.30859375,0.28515625,-0.234375,0.0234375,-0.015625,0.013671875
2026-09-07T14:48:30.529210,0.69921875,-0.01666259765625,-0.01605224609375,0.71453857421875,-1.10546875,-0.0546875,-0.38671875,0.005859375,-0.015625,-0.01953125
2026-09-07T14:48:30.636935,0.69891357421875,-0.01641845703125,-0.01739501953125,0.71478271484375,-0.46875,-0.015625,0.15625,0.0078125,-0.013671875,0.0234375
2026-09-07T14:48:30.736320,0.69915771484375,-0.016357421875,-0.01812744140625,0.71453857421875,-0.8046875,0.16796875,0.04296875,-0.015625,-0.005859375,0.00390625
2026-09-07T14:48:30.836898,0.69903564453125,-0.01544189453125,-0.019287109375,0.71466064453125,-0.59765625,0.046875,-0.5234375,0.013671875,-0.009765625,0.005859375
2026-09-07T14:48:30.937262,0.6995849609375,-0.0147705078125,-0.02069091796875,0.714111328125,-0.7109375,0.16796875,-0.34765625,0.0078125,-0.0078125,0.005859375
2026-09-07T14:48:31.037126,0.699951171875,-0.0137939453125,-0.0220947265625,0.71368408203125,-0.86328125,0.12109375,0.07421875,-0.0078125,-0.005859375,0.01953125
2026-09-07T14:48:31.129001,0.69976806640625,-0.0133056640625,-0.0228271484375,0.7138671875,-0.625,-1.1484375,-0.32421875,0.017578125,-0.001953125,0.009765625
2026-09-07T14:48:31.229474,-1.299072265625,-0.012451171875,-0.02374267578125,0.7127685546875,-0.5625,-0.30078125,-0.80859375,-0.01171875,0.005859375,-0.03125
2026-09-07T14:48:31.329524,0.70062255859375,-0.01068115234375,-0.025146484375,0.7130126953125,-0.921875,0.4375,-0.578125,-0.005859375,0.00390625,-0.02734375
2026-09-07T14:48:31.429579,0.70062255859375,-0.00927734375,-0.02630615234375,0.7130126953125,-0.9140625,0.20703125,-0.37890625,-0.0234375,0.00390625,-0.01171875
2026-09-07T14:48:31.529556,-1.2999267578125,-0.0084228515625,-0.02703857421875,0.71356201171875,-1.01953125,0.6953125,-0.125,-0.013671875,0.001953125,-0.015625
2026-09-07T14:48:31.629620,0.6993408203125,1.99334716796875,-0.0286865234375,0.71417236328125,-0.59765625,-0.18359375,0.21875,0.00390625,-0.00390625,-0.013671875
2026-09-07T14:48:31.747350,0.69964599609375,-0.00518798828125,-0.03021240234375,0.71380615234375,-0.796875,0.23046875,-0.171875,0.005859375,0.001953125,0.02734375
2026-09-07T14:48:31.834228,0.7008056640625,-0.00469970703125,-0.0306396484375,0.71270751953125,-0.81640625,-0.16015625,-0.1640625,0.005859375,0.0,0.025390625
2026-09-07T14:48:31.945594,0.70098876953125,-0.00494384765625,-0.0306396484375,0.7125244140625,-0.06640625,-0.0546875,-0.0234375,-0.01171875,-0.015625,0.03125
2026-09-07T14:48:32.033693,0.7015380859375,-0.00543212890625,-0.031494140625,0.7119140625,0.09375,0.21484375,-0.17578125,-0.0078125,-0.009765625,0.013671875
2026-09-07T14:48:32.130563,0.70135498046875,-0.00518798828125,-0.03192138671875,0.71209716796875,-0.40234375,0.015625,0.12109375,-0.017578125,-0.001953125,-0.005859375
2026-09-07T14:48:32.230827,0.70123291015625,-0.0030517578125,-0.03411865234375,0.71209716796875,-0.2421875,-0.16796875,0.08203125,-0.001953125,-0.0078125,-0.01171875
2026-09-07T14:48:32.330609,0.701416015625,-0.00042724609375,-0.037109375,0.7117919921875,-0.35546875,0.05859375,0.19921875,-0.001953125,-0.013671875,-0.015625
2026-09-07T14:48:32.430644,0.70172119140625,0.00103759765625,-0.03985595703125,0.71136474609375,-0.09375,0.13671875,0.3203125,0.013671875,-0.02734375,-0.005859375
2026-09-07T14:48:32.530484,0.7021484375,0.001953125,-0.04241943359375,0.71075439453125,-0.53515625,0.3671875,-0.05859375,0.009765625,-0.029296875,-0.017578125
2026-09-07T14:48:32.631311,0.70050048828125,0.00933837890625,-0.0521240234375,0.711669921875,-0.00390625,-0.0078125,-0.1875,0.0,-0.041015625,-0.001953125
2026-09-07T14:48:32.734373,0.6990966796875,0.01397705078125,-0.0594482421875,0.71240234375,-0.05859375,-0.0703125,-0.546875,-0.005859375,-0.0390625,-0.009765625
2026-09-07T14:48:32.835403,0.6986083984375,0.0166015625,-0.06475830078125,0.71234130859375,-0.1328125,0.18359375,0.1015625,0.001953125,-0.037109375,-0.015625
2026-09-07T14:48:32.935365,0.69891357421875,0.01861572265625,-0.06939697265625,0.71160888671875,-0.28515625,0.16015625,-0.03515625,0.009765625,-0.044921875,-0.005859375
2026-09-07T14:48:33.035065,0.69903564453125,0.02008056640625,-0.07391357421875,0.7109375,-0.0859375,-0.03125,0.00390625,0.01953125,-0.05078125,0.009765625
2026-09-07T14:48:33.128826,0.69989013671875,0.020751953125,-0.07818603515625,0.70965576171875,-0.0859375,-0.03125,-0.109375,0.017578125,-0.048828125,0.005859375
2026-09-07T14:48:33.234651,0.7003173828125,0.02081298828125,-0.081787109375,0.7088623046875,-0.11328125,0.3203125,-0.15625,-0.015625,-0.048828125,-0.009765625
2026-09-07T14:48:33.342417,0.6998291015625,0.0206298828125,-0.08489990234375,0.70892333984375,0.19921875,-0.30859375,0.09765625,0.005859375,-0.0546875,-0.025390625
2026-09-07T14:48:33.433909,0.699951171875,0.019287109375,-0.08935546875,0.70831298828125,-0.09375,0.03125,0.01953125,0.0,-0.0625,-0.03125
2026-09-07T14:48:33.541771,0.6995849609375,0.0186767578125,-0.0909423828125,0.70849609375,-0.23046875,0.22265625,0.10546875,-0.009765625,-0.060546875,-0.01953125
2026-09-07T14:48:33.633565,0.6986083984375,0.0167236328125,-0.103271484375,0.70892333984375,-0.0078125,-0.0703125,0.36328125,0.0078125,-0.064453125,-0.013671875
2026-09-07T14:48:33.742978,0.6986083984375,0.015869140625,-0.0968017578125,0.708740234375,-0.0390625,0.28125,-0.140625,-0.017578125,-0.072265625,0.005859375
2026-09-07T14:48:33.839837,0.69775390625,0.0128173828125,-0.10113525390625,0.70904541015625,-0.09765625,0.07421875,-0.2421875,-0.021484375,-0.072265625,0.00390625
2026-09-07T14:48:33.940164,0.69708251953125,0.010986328125,-0.10382080078125,0.7093505859375,0.1015625,-0.296875,-0.1171875,-0.03515625,-0.056640625,0.0078125
2026-09-07T14:48:34.029561,0.697509765625,0.009765625,-0.1060791015625,0.7086181640625,0.18359375,-0.0703125,-0.0234375,-0.021484375,-0.056640625,0.005859375
2026-09-07T14:48:34.142682,0.6976318359375,0.0087890625,-0.1070556640625,0.7083740234375,0.26953125,-0.046875,0.15234375,-0.009765625,-0.06640625,-0.001953125
2026-09-07T14:48:34.242363,0.6973876953125,0.0050048828125,-0.10992431640625,0.70819091796875,0.296875,-0.1328125,0.02734375,-0.0078125,-0.0625,0.0078125
2026-09-07T14:48:34.341592,0.69744873046875,0.001220703125,-0.11041259765625,0.70806884765625,0.5234375,-0.125,-0.00390625,-0.0078125,-0.056640625,0.013671875
2026-09-07T14:48:34.450096,0.6971435546875,-0.0037841796875,-0.10150146484375,0.70849609375,1.21875,0.23046875,0.05859375,-0.033203125,-0.060546875,0.01953125
2026-09-07T14:48:34.536345,0.69573974609375,-0.00665283203125,-0.11053466796875,0.70965576171875,1.09375,-0.015625,0.1953125,-0.013671875,-0.068359375,0.0234375
2026-09-07T14:48:34.650620,0.694580078125,-0.00970458984375,-0.1119384765625,0.7105712890625,1.25390625,-0.0546875,0.25390625,-0.021484375,-0.0625,0.00390625
2026-09-07T14:48:34.740505,0.69366455078125,-0.01239013671875,-0.11376953125,0.71112060546875,0.05859375,-0.30859375,0.41015625,-0.00390625,-0.083984375,0.0
2026-09-07T14:48:34.850216,0.6900634765625,-0.03533935546875,-0.09722900390625,0.71636962890625,-0.02734375,-0.12890625,0.07421875,-0.021484375,-0.095703125,0.00390625
2026-09-07T14:48:34.940931,0.6868896484375,-0.04901123046875,-0.090576171875,0.71942138671875,-0.35546875,0.53125,-0.234375,-0.02734375,-0.087890625,0.015625
2026-09-07T14:48:35.029280,0.68408203125,-0.05908203125,-0.08685302734375,0.7218017578125,-0.265625,0.58203125,-0.109375,-0.04296875,-0.087890625,0.029296875
2026-09-07T14:48:35.152387,0.68048095703125,-0.0714111328125,-0.08465576171875,0.724365234375,0.1328125,-0.2734375,0.46484375,-0.033203125,-0.109375,0.02734375
2026-09-07T14:48:35.249607,0.67901611328125,-0.075439453125,-0.08477783203125,0.72528076171875,0.546875,-0.61328125,0.421875,-0.005859375,-0.126953125,0.009765625
2026-09-07T14:48:35.348515,0.67559814453125,-0.08392333984375,-0.08526611328125,0.72747802734375,0.44140625,-0.05859375,0.1796875,0.0078125,-0.123046875,0.015625
2026-09-07T14:48:35.449354,0.67193603515625,-0.09295654296875,-0.0850830078125,0.72979736328125,0.69921875,0.04296875,0.05078125,0.0,-0.12109375,0.005859375
2026-09-07T14:48:35.528410,0.66815185546875,-0.1024169921875,-0.08428955078125,0.73211669921875,0.34765625,0.06640625,0.01171875,0.00390625,-0.125,-0.0078125
2026-09-07T14:48:35.652899,0.66168212890625,-0.117919921875,-0.08489990234375,0.735595703125,0.30859375,0.1328125,0.0859375,-0.041015625,-0.16796875,-0.015625
2026-09-07T14:48:35.748897,0.65924072265625,-0.123291015625,-0.08575439453125,0.73681640625,0.16015625,-0.01953125,0.390625,-0.04296875,-0.171875,-0.01953125
2026-09-07T14:48:35.849685,0.65179443359375,-0.13861083984375,-0.08905029296875,0.74029541015625,-0.0546875,-0.17578125,0.6484375,-0.01953125,-0.1796875,-0.015625
2026-09-07T14:48:35.948874,0.64984130859375,-0.1463623046875,-0.09466552734375,0.73980712890625,-0.37890625,-0.14453125,0.85546875,0.013671875,-0.20703125,-0.015625
2026-09-07T14:48:36.035357,0.6495361328125,-0.15032958984375,-0.09857177734375,0.73883056640625,-0.38671875,-0.10546875,0.39453125,0.0078125,-0.2421875,-0.01953125
2026-09-07T14:48:36.268097,0.63653564453125,-0.1695556640625,-0.1219482421875,0.742431640625,-0.1875,-0.31640625,0.29296875,-0.033203125,-0.25,-0.05078125
2026-09-07T14:48:36.355332,0.62567138671875,-0.17669677734375,-0.1339111328125,0.74786376953125,-0.2890625,-0.29296875,0.375,-0.0390625,-0.294921875,-0.087890625
2026-09-07T14:48:36.457192,0.61676025390625,-0.1842041015625,-0.1478271484375,0.7508544921875,-0.5,0.16015625,0.359375,-0.0546875,-0.3125,-0.07421875
2026-09-07T14:48:36.556901,0.60980224609375,-0.190673828125,-0.16265869140625,0.75189208984375,-0.49609375,0.20703125,0.96875,-0.044921875,-0.306640625,-0.087890625
2026-09-07T14:48:36.651973,0.60821533203125,-0.20062255859375,-0.176513671875,0.7474365234375,-0.76171875,0.56640625,0.62890625,0.064453125,-0.345703125,-0.068359375
2026-09-07T14:48:36.757210,0.60614013671875,-0.21337890625,-0.18975830078125,0.7423095703125,-1.20703125,1.18359375,-0.44140625,0.0390625,-0.3828125,-0.048828125
2026-09-07T14:48:36.865096,0.6009521484375,-0.22662353515625,-0.20263671875,0.73919677734375,-0.9296875,0.48828125,-0.40234375,-0.05078125,-0.384765625,-0.009765625
2026-09-07T14:48:36.956175,0.59600830078125,-0.2408447265625,-0.2159423828125,0.73492431640625,-0.85546875,-0.2265625,0.109375,-0.015625,-0.423828125,-0.029296875
2026-09-07T14:48:37.054714,0.59326171875,-0.248046875,1.776611328125,0.7325439453125,-0.7734375,-0.5703125,-0.12890625,-0.02734375,-0.43359375,-0.052734375
2026-09-07T14:48:37.274462,0.583251953125,-0.2757568359375,-0.252197265625,0.72125244140625,-0.1484375,0.09375,-0.140625,0.0078125,-0.435546875,-0.021484375
2026-09-07T14:48:37.371534,0.57135009765625,-0.26513671875,-0.2872314453125,0.7216796875,0.1953125,0.1953125,-0.3515625,-0.017578125,-0.470703125,-0.029296875
2026-09-07T14:48:37.472059,0.5616455078125,-0.27008056640625,-0.310302734375,0.7178955078125,0.16796875,0.30078125,-0.10546875,-0.037109375,-0.47265625,-0.03125
2026-09-07T14:48:37.572162,0.5526123046875,-0.27984619140625,-0.32952880859375,0.71258544921875,-0.0390625,0.21484375,0.62109375,-0.046875,-0.4609375,-0.01953125
2026-09-07T14:48:37.656290,0.54412841796875,-0.2913818359375,-0.3463134765625,0.70648193359375,0.07421875,0.05859375,0.7421875,0.009765625,-0.44140625,-0.02734375
2026-09-07T14:48:37.763626,0.53643798828125,-0.30322265625,-0.36138916015625,0.69976806640625,0.05078125,0.21875,-0.15234375,0.03515625,-0.4453125,-0.0234375
2026-09-07T14:48:37.871710,0.52801513671875,-0.3150634765625,-0.37811279296875,0.69207763671875,0.171875,0.43359375,-1.078125,0.03125,-0.501953125,-0.080078125
2026-09-07T14:48:37.971379,0.5184326171875,-0.3277587890625,-0.39556884765625,0.68359375,0.32421875,0.0859375,-0.72265625,-0.029296875,-0.466796875,-0.072265625
2026-09-07T14:48:38.070674,0.50897216796875,-0.340576171875,-0.41064453125,0.67547607421875,-0.0390625,-0.296875,-0.16796875,-0.041015625,-0.431640625,-0.056640625
2026-09-07T14:48:38.171796,0.5,-0.352783203125,-0.42431640625,0.66748046875,-0.20703125,-0.37890625,-0.12109375,-0.005859375,-0.431640625,-0.0546875
2026-09-07T14:48:38.272455,0.491455078125,-0.365478515625,-0.43701171875,0.65875244140625,-0.0234375,0.07421875,0.0390625,-0.00390625,-0.431640625,-0.05078125
2026-09-07T14:48:38.382877,0.48504638671875,-0.3790283203125,-0.4486083984375,0.64794921875,0.08203125,0.00390625,0.06640625,0.001953125,-0.404296875,-0.05078125
2026-09-07T14:48:38.470537,0.4761962890625,-0.3983154296875,-0.4647216796875,0.63134765625,0.05859375,0.09765625,-0.18359375,0.001953125,-0.39453125,-0.052734375
2026-09-07T14:48:38.571941,0.47247314453125,-0.4039306640625,-0.47003173828125,0.62664794921875,-0.01171875,0.296875,0.046875,-0.001953125,-0.384765625,-0.05078125
2026-09-07T14:48:38.672948,0.46490478515625,-0.4150390625,-0.48040771484375,0.61712646484375,-0.10546875,0.1796875,0.09375,-0.015625,-0.376953125,-0.041015625
2026-09-07T14:48:38.764989,0.4569091796875,-0.425537109375,-0.49041748046875,0.60797119140625,0.1015625,-0.06640625,0.3046875,0.005859375,-0.36328125,-0.037109375
2026-09-07T14:48:38.880366,0.4493408203125,-0.43572998046875,-0.49969482421875,0.5987548828125,0.20703125,-0.234375,0.0,0.0234375,-0.33203125,-0.02734375
2026-09-07T14:48:38.971529,0.438720703125,-0.45068359375,-0.51153564453125,0.58544921875,0.55859375,0.00390625,-0.49609375,0.033203125,-0.3203125,-0.017578125
2026-09-07T14:48:39.080462,0.435546875,-0.455810546875,-0.51446533203125,0.58123779296875,0.5625,-0.1875,-0.73828125,0.01953125,-0.263671875,-0.01171875
2026-09-07T14:48:39.171659,0.426025390625,-0.47430419921875,-0.517578125,0.57061767578125,0.44921875,-0.01171875,-0.6640625,0.0078125,-0.244140625,-0.015625
2026-09-07T14:48:39.281269,0.42333984375,-0.47821044921875,-0.51953125,0.56756591796875,0.3359375,0.25,-0.6015625,0.0078125,-0.197265625,-0.013671875
2026-09-07T14:48:39.368708,0.41607666015625,-0.48699951171875,-0.5260009765625,0.55950927734375,0.203125,0.171875,-0.109375,0.0078125,-0.1875,-0.01953125
2026-09-07T14:48:39.480713,0.413818359375,-0.48956298828125,-0.52789306640625,0.55712890625,0.39453125,0.203125,-0.53125,-0.001953125,-0.150390625,-0.01953125
2026-09-07T14:48:39.580150,0.40924072265625,-0.508056640625,-0.5224609375,0.54901123046875,0.16796875,-0.328125,-0.03125,-0.001953125,-0.1171875,-0.01953125
2026-09-07T14:48:39.668728,0.40716552734375,-0.51910400390625,-0.51812744140625,0.54425048828125,-0.03125,-0.03125,0.0234375,-0.01171875,-0.109375,-0.005859375
2026-09-07T14:48:39.769779,0.4061279296875,-0.5233154296875,-0.51678466796875,0.54229736328125,-0.1640625,-0.08203125,0.03125,0.0,-0.10546875,0.005859375
2026-09-07T14:48:39.870342,0.404052734375,-0.53021240234375,-0.5152587890625,0.53863525390625,0.04296875,0.0234375,-0.14453125,-0.015625,-0.08984375,-0.001953125
2026-09-07T14:48:39.970149,0.40203857421875,-0.5350341796875,-0.51507568359375,0.5355224609375,0.03515625,0.16796875,0.13671875,-0.025390625,-0.08203125,-0.013671875
2026-09-07T14:48:40.069701,0.40008544921875,-0.53851318359375,-0.5157470703125,0.5328369140625,-0.1484375,0.0078125,0.359375,-0.029296875,-0.0859375,-0.005859375
2026-09-07T14:48:40.169632,0.39739990234375,-0.5406494140625,-0.517822265625,0.53070068359375,-0.078125,-0.23828125,0.265625,-0.013671875,-0.09375,-0.001953125
2026-09-07T14:48:40.265484,0.3944091796875,-0.54266357421875,-0.52020263671875,0.528564453125,-0.015625,-0.00390625,0.13671875,0.0,-0.087890625,-0.015625
2026-09-07T14:48:40.369644,0.39117431640625,-0.54345703125,-0.523193359375,0.527099609375,0.0625,0.01171875,0.26171875,0.0078125,-0.083984375,-0.01171875
2026-09-07T14:48:40.469809,0.3876953125,-0.5440673828125,-0.52606201171875,0.5262451171875,0.015625,-0.05859375,0.09765625,0.01953125,-0.0859375,0.0
2026-09-07T14:48:40.576516,0.384521484375,-0.545166015625,-0.52850341796875,0.5250244140625,0.15234375,0.09375,-0.328125,0.015625,-0.0703125,-0.0078125
2026-09-07T14:48:40.668528,0.382080078125,-0.5479736328125,-0.53033447265625,0.52197265625,0.12890625,-0.01171875,-0.265625,0.017578125,-0.056640625,-0.005859375
2026-09-07T14:48:40.764280,0.381591796875,-0.5489501953125,-0.53057861328125,0.5211181640625,-0.0546875,0.0078125,-0.4296875,0.01171875,-0.0390625,0.0
2026-09-07T14:48:40.876388,0.3812255859375,-0.5517578125,-0.52978515625,0.5191650390625,-0.078125,0.16796875,-0.06640625,-0.009765625,-0.033203125,0.0
2026-09-07T14:48:40.968441,0.3819580078125,-0.55645751953125,-0.52789306640625,0.51556396484375,0.02734375,-0.17578125,-0.2109375,-0.009765625,-0.02734375,0.00390625
2026-09-07T14:48:41.077438,0.38226318359375,-0.5577392578125,-0.52734375,0.5145263671875,0.05859375,-0.20703125,0.1875,0.0,-0.015625,-0.009765625
2026-09-07T14:48:41.168314,0.38323974609375,-0.5609130859375,-0.52581787109375,0.51190185546875,-0.0859375,-0.015625,-0.2109375,-0.01953125,-0.009765625,0.001953125
2026-09-07T14:48:41.277338,0.3836669921875,-0.56158447265625,-0.52557373046875,0.5111083984375,0.015625,-0.12109375,-0.09375,-0.01171875,-0.0078125,-0.001953125
2026-09-07T14:48:41.364145,0.384765625,-0.56298828125,-0.52508544921875,0.5091552734375,0.046875,0.015625,0.01953125,-0.013671875,-0.0078125,-0.017578125
2026-09-07T14:48:41.477287,0.3851318359375,-0.5631103515625,-0.52520751953125,0.50860595703125,-0.7265625,-0.03515625,-0.24609375,0.001953125,-0.00390625,-0.03125
2026-09-07T14:48:41.576924,0.388916015625,-0.56268310546875,-0.52679443359375,0.504638671875,-0.9609375,0.02734375,-0.1328125,-0.009765625,-0.005859375,-0.017578125
2026-09-07T14:48:41.676916,0.3931884765625,-0.5611572265625,-0.52923583984375,0.5003662109375,-0.34765625,0.75390625,-0.09375,-0.0078125,-0.009765625,0.0078125
2026-09-07T14:48:41.776759,0.3974609375,-0.55975341796875,-0.531494140625,0.4962158203125,0.48046875,0.16796875,0.3203125,0.013671875,-0.005859375,0.009765625
2026-09-07T14:48:41.875199,0.40057373046875,-0.55877685546875,-0.5330810546875,0.4931640625,0.0,0.08984375,-0.1796875,0.0,-0.0078125,0.0078125
2026-09-07T14:48:41.977266,0.4022216796875,-0.55792236328125,-0.534423828125,0.49127197265625,-0.1796875,-0.16796875,-0.1484375,0.013671875,-0.0078125,0.005859375
2026-09-07T14:48:42.084816,0.4039306640625,-0.557373046875,-0.535400390625,0.48944091796875,-0.30078125,0.453125,-0.19140625,-0.017578125,-0.00390625,-0.005859375
2026-09-07T14:48:42.174976,0.404541015625,-0.55694580078125,-0.5361328125,0.488525390625,-0.33984375,-0.015625,0.23828125,0.01171875,-0.00390625,0.009765625
2026-09-07T14:48:42.285637,0.40478515625,-0.5572509765625,-0.5360107421875,0.4881591796875,0.08203125,-0.15234375,-0.16015625,0.009765625,-0.001953125,-0.01171875
2026-09-07T14:48:42.363372,0.4052734375,-0.557373046875,-0.53619384765625,0.4874267578125,-0.171875,-0.12109375,0.05078125,0.0078125,-0.005859375,-0.00390625
2026-09-07T14:48:42.487587,0.40594482421875,-0.5574951171875,-0.53656005859375,0.48638916015625,0.1875,0.23046875,-0.29296875,-0.00390625,0.0,-0.015625
2026-09-07T14:48:42.575692,0.40625,-0.5576171875,-0.5364990234375,0.48602294921875,-0.0859375,-0.375,0.09765625,0.015625,0.001953125,-0.00390625
2026-09-07T14:48:42.685269,0.4072265625,-0.55792236328125,-0.5360107421875,0.48529052734375,-0.1796875,0.0703125,-0.0546875,-0.00390625,0.001953125,0.009765625
2026-09-07T14:48:42.783611,0.40740966796875,-0.55804443359375,-0.53594970703125,0.48516845703125,0.05078125,0.0703125,-0.10546875,-0.01171875,0.001953125,0.013671875
2026-09-07T14:48:42.873830,0.40771484375,-0.55804443359375,-0.535888671875,0.48492431640625,0.12109375,-0.109375,0.1171875,0.001953125,-0.001953125,-0.001953125
2026-09-07T14:48:42.963901,0.4080810546875,-0.5582275390625,-0.53582763671875,0.4844970703125,-0.03125,-0.24609375,-0.0078125,-0.00390625,0.001953125,0.01171875
2026-09-07T14:48:43.084020,0.4080810546875,-0.55816650390625,-0.535888671875,0.48455810546875,0.203125,-0.16796875,-0.03125,-0.015625,0.001953125,-0.00390625
2026-09-07T14:48:43.183808,0.408447265625,-0.55780029296875,-0.5361328125,0.484375,-0.01171875,-0.0234375,0.0625,0.001953125,-0.001953125,0.001953125
2026-09-07T14:48:43.283665,0.40869140625,-0.5576171875,-0.53631591796875,0.484130859375,-0.0859375,0.0234375,0.0859375,-0.009765625,0.005859375,-0.0078125
2026-09-07T14:48:43.384366,0.4090576171875,-0.55706787109375,-0.5367431640625,0.4840087890625,-0.015625,-0.19140625,0.03125,0.0,0.001953125,-0.005859375
2026-09-07T14:48:43.484500,0.409423828125,-0.55682373046875,-0.537109375,0.48358154296875,-0.1328125,0.19921875,-0.03125,-0.013671875,-0.00390625,-0.00390625
2026-09-07T14:48:43.584221,0.40966796875,-0.556396484375,-0.5377197265625,0.483154296875,-0.23828125,0.0703125,0.0234375,-0.005859375,-0.00390625,-0.0078125
2026-09-07T14:48:43.684069,0.41033935546875,-0.55615234375,-0.5382080078125,0.48236083984375,-0.08203125,-0.0234375,-0.15625,0.0078125,-0.00390625,-0.009765625
2026-09-07T14:48:43.783658,0.4112548828125,-0.55584716796875,-0.53839111328125,0.481689453125,-0.21484375,-0.12109375,0.09765625,0.01171875,0.005859375,0.001953125
2026-09-07T14:48:43.893689,0.4130859375,-0.5548095703125,-0.53948974609375,0.4801025390625,-0.63671875,0.26171875,-0.0625,0.009765625,0.0,0.001953125
2026-09-07T14:48:43.983487,0.41473388671875,-0.55419921875,-0.54022216796875,0.47857666015625,-0.05859375,-0.0078125,-0.09765625,0.0078125,0.001953125,0.00390625
2026-09-07T14:48:44.085854,0.41546630859375,-0.55377197265625,-0.540771484375,0.477783203125,-0.08203125,-0.0390625,-0.0234375,-0.0234375,-0.001953125,0.015625
2026-09-07T14:48:44.184230,0.41607666015625,-0.55364990234375,-0.54095458984375,0.47723388671875,-0.05078125,-0.26171875,-0.08203125,-0.00390625,0.0,0.009765625
2026-09-07T14:48:44.284453,0.41705322265625,-0.5537109375,-0.54083251953125,0.47637939453125,-0.00390625,0.19921875,-0.05078125,0.02734375,0.0,-0.00390625
2026-09-07T14:48:44.377330,0.41748046875,-0.5537109375,-0.5408935546875,0.47601318359375,-0.1640625,0.125,-0.05859375,0.0,-0.001953125,-0.005859375
2026-09-07T14:48:44.485651,0.4185791015625,-0.55316162109375,-0.54150390625,0.47491455078125,-0.140625,0.09375,0.015625,-0.005859375,0.0,-0.009765625
2026-09-07T14:48:44.585319,0.4190673828125,-0.55255126953125,-0.54217529296875,0.4744873046875,0.05859375,-0.3671875,0.0859375,0.005859375,0.0,-0.005859375
2026-09-07T14:48:44.686386,0.42010498046875,-0.5523681640625,-0.54217529296875,0.4737548828125,-0.09375,-0.51171875,0.19921875,0.009765625,0.005859375,-0.005859375
2026-09-07T14:48:44.785343,0.42095947265625,-0.5523681640625,-0.5421142578125,0.4730224609375,-0.05078125,0.1015625,0.20703125,0.009765625,-0.00390625,-0.001953125
2026-09-07T14:48:44.875687,0.4212646484375,-0.5523681640625,-0.54217529296875,0.47271728515625,-0.05078125,0.8046875,-0.40625,0.005859375,-0.001953125,-0.005859375
2026-09-07T14:48:44.970183,0.42138671875,-0.55230712890625,-0.54241943359375,0.47247314453125,-0.04296875,-0.0625,-0.03515625,0.0078125,-0.00390625,0.2578125
2026-09-07T14:48:45.085769,0.42138671875,-0.5523681640625,-0.542236328125,0.4725341796875,-0.00390625,-0.0859375,0.0078125,-0.001953125,0.00390625,0.005859375
2026-09-07T14:48:45.186979,0.4215087890625,-0.552490234375,-0.5421142578125,0.47247314453125,-0.08203125,-0.15234375,0.1640625,0.009765625,0.0,0.005859375
2026-09-07T14:48:45.283500,0.42205810546875,-0.55267333984375,-0.5418701171875,0.47198486328125,0.2109375,-0.12890625,-0.04296875,0.005859375,-0.005859375,0.00390625
2026-09-07T14:48:45.383457,0.42236328125,-0.55255126953125,-0.54193115234375,0.4718017578125,-0.2890625,0.1015625,-0.06640625,0.0,0.00390625,0.0
2026-09-07T14:48:45.483351,0.42236328125,-0.552490234375,-0.54205322265625,0.47174072265625,0.06640625,0.08203125,0.15625,-0.021484375,0.001953125,0.00390625
2026-09-07T14:48:45.583861,0.4227294921875,-0.5526123046875,-0.54180908203125,0.47149658203125,-0.00390625,-0.5078125,-0.03515625,0.015625,0.001953125,-0.00390625
2026-09-07T14:48:45.684547,0.42352294921875,-0.5528564453125,-0.54156494140625,0.4708251953125,-0.03515625,-0.234375,-0.09765625,0.015625,0.0,-0.255859375
2026-09-07T14:48:45.783123,0.42388916015625,-0.5526123046875,-0.541748046875,0.4705810546875,0.00390625,0.4140625,-0.12109375,0.005859375,0.00390625,-0.01171875
2026-09-07T14:48:45.883789,0.42449951171875,-0.5528564453125,-0.54144287109375,0.4700927734375,0.02734375,-0.0625,0.00390625,0.013671875,0.001953125,0.005859375
2026-09-07T14:48:45.983758,0.42437744140625,-0.55291748046875,-0.54119873046875,0.4703369140625,-0.1328125,0.3671875,-0.02734375,0.009765625,0.001953125,0.017578125
2026-09-07T14:48:46.067463,0.42425537109375,-0.5528564453125,-0.541259765625,0.47064208984375,0.3203125,-0.203125,0.1171875,-0.013671875,-0.001953125,0.01953125
2026-09-07T14:48:46.185260,0.425048828125,-0.5526123046875,-0.5413818359375,0.469970703125,0.10546875,-0.0078125,-0.04296875,0.01171875,0.001953125,-0.0078125
2026-09-07T14:48:46.283853,0.4256591796875,-0.55194091796875,-0.541748046875,0.46978759765625,-0.05078125,0.140625,-0.11328125,-0.001953125,0.005859375,-0.015625
2026-09-07T14:48:46.383398,0.42608642578125,-0.55133056640625,-0.54229736328125,0.469482421875,-0.1015625,0.29296875,0.0859375,-0.015625,0.005859375,-0.0234375
2026-09-07T14:48:46.484415,0.426513671875,-0.55120849609375,-0.542236328125,0.46929931640625,-0.19921875,-0.4140625,-0.00390625,-0.005859375,0.001953125,0.001953125
2026-09-07T14:48:46.583916,0.427001953125,-0.5509033203125,-0.54241943359375,0.468994140625,-0.21484375,-0.11328125,0.046875,-0.001953125,0.0,0.001953125
2026-09-07T14:48:46.683720,0.42767333984375,-0.550537109375,-0.542724609375,0.468505859375,-0.328125,0.1171875,-0.07421875,0.0078125,0.001953125,-0.001953125
2026-09-07T14:48:46.783850,0.428955078125,-0.5506591796875,-0.54266357421875,0.46728515625,0.1328125,-0.53515625,0.39453125,0.021484375,-0.001953125,-0.00390625
2026-09-07T14:48:46.884213,0.43017578125,-0.55059814453125,-0.5426025390625,0.4661865234375,-0.296875,0.46875,-0.15234375,0.03125,0.00390625,-0.005859375
2026-09-07T14:48:46.983185,0.43048095703125,-0.54998779296875,-0.54315185546875,0.466064453125,-0.04296875,0.55859375,-0.1796875,0.00390625,0.001953125,0.001953125
2026-09-07T14:48:47.083707,0.43035888671875,-0.5491943359375,-0.5439453125,0.46612548828125,-0.0703125,0.41796875,0.1484375,-0.001953125,0.0078125,-0.025390625
2026-09-07T14:48:47.176015,0.429443359375,-0.54901123046875,-0.54461669921875,0.4664306640625,-0.4609375,0.02734375,0.1796875,-0.013671875,-0.005859375,0.01953125
2026-09-07T14:48:47.284210,0.42913818359375,-0.54888916015625,-0.54547119140625,0.46588134765625,0.16015625,-0.4765625,0.17578125,-0.005859375,-0.021484375,0.009765625
2026-09-07T14:48:47.384015,0.42950439453125,-0.54876708984375,-0.54620361328125,0.46478271484375,-0.3203125,0.25390625,-0.23046875,-0.03515625,-0.0078125,0.005859375
2026-09-07T14:48:47.484157,0.43023681640625,-0.54815673828125,-0.54705810546875,0.4638671875,0.203125,0.23046875,-0.234375,-0.00390625,-0.00390625,-0.0078125
2026-09-07T14:48:47.583744,0.4315185546875,-0.5477294921875,-0.54779052734375,0.46234130859375,0.04296875,0.46875,0.0859375,0.01171875,-0.005859375,-0.00390625
2026-09-07T14:48:47.678628,0.431884765625,-0.54742431640625,-0.5484619140625,0.46148681640625,0.08984375,-0.4296875,-0.3125,-0.021484375,-0.009765625,0.02734375
2026-09-07T14:48:47.784102,0.4320068359375,-0.54718017578125,-0.54888916015625,0.46124267578125,0.01171875,-0.0625,-0.12109375,-0.001953125,-0.005859375,0.005859375
2026-09-07T14:48:47.935026,0.4327392578125,-0.54669189453125,-0.54986572265625,0.4599609375,0.05078125,0.28125,-0.07421875,0.005859375,-0.00390625,0.009765625
2026-09-07T14:48:47.978282,0.43310546875,-0.54632568359375,-0.55029296875,0.45953369140625,0.42578125,-1.21875,0.00390625,-0.021484375,-0.001953125,-0.005859375
2026-09-07T14:48:48.099552,0.43328857421875,-0.5458984375,-0.55084228515625,0.459228515625,-0.44140625,0.23828125,-0.2265625,-0.00390625,-0.005859375,-0.0078125
2026-09-07T14:48:48.182653,0.437744140625,-0.542236328125,-0.55474853515625,0.45458984375,0.171875,-0.375,0.00390625,-0.021484375,-0.001953125,0.009765625
2026-09-07T14:48:48.293498,0.440185546875,-0.5400390625,-0.55694580078125,0.45208740234375,-0.2109375,-0.0703125,0.1171875,0.001953125,-0.001953125,0.00390625
2026-09-07T14:48:48.384123,0.44122314453125,-0.539306640625,-0.557861328125,0.4508056640625,-0.0859375,0.12109375,-0.15234375,-0.025390625,-0.0078125,0.0078125
2026-09-07T14:48:48.501826,0.44219970703125,-0.53826904296875,-0.55902099609375,0.44976806640625,-0.4453125,0.19140625,0.03515625,-0.021484375,-0.001953125,0.001953125
2026-09-07T14:48:48.584151,0.44390869140625,-0.53717041015625,-0.56005859375,0.447998046875,-0.16015625,0.3125,-0.35546875,-0.015625,0.0,-0.01171875
2026-09-07T14:48:48.692565,0.4453125,-0.53582763671875,-0.561279296875,0.4466552734375,-0.55078125,0.03515625,0.05078125,-0.017578125,0.00390625,-0.0078125
2026-09-07T14:48:48.782719,0.446533203125,-0.534423828125,-0.5625,0.44561767578125,-0.21875,0.48046875,-0.37109375,-0.0390625,0.0,-0.0078125
2026-09-07T14:48:48.883769,0.44830322265625,-0.5322265625,-0.56451416015625,0.44390869140625,-0.234375,0.1484375,-0.43359375,-0.060546875,0.00390625,0.01171875
2026-09-07T14:48:48.991427,0.449951171875,-0.52947998046875,-0.5667724609375,0.44268798828125,0.06640625,-0.9453125,0.2109375,-0.06640625,0.00390625,0.005859375
2026-09-07T14:48:49.083634,0.451171875,-0.52789306640625,-0.5679931640625,0.44171142578125,0.4296875,-0.66015625,0.1484375,-0.021484375,0.00390625,-0.029296875
2026-09-07T14:48:49.193118,0.45159912109375,-0.52630615234375,-0.5692138671875,0.44158935546875,-0.14453125,0.01953125,0.6015625,-0.033203125,0.005859375,-0.01953125
2026-09-07T14:48:49.294177,0.45233154296875,-0.52508544921875,-0.57012939453125,0.441162109375,-0.20703125,0.53515625,-0.203125,-0.033203125,0.005859375,-0.01953125
2026-09-07T14:48:49.385191,0.45294189453125,-0.52349853515625,-0.57147216796875,0.4407958984375,-0.48828125,-0.0234375,0.26171875,-0.029296875,0.0078125,-0.001953125
2026-09-07T14:48:49.490422,0.454345703125,-0.52215576171875,-0.572265625,0.4398193359375,-0.40625,0.3359375,-0.18359375,-0.021484375,0.009765625,-0.015625
2026-09-07T14:48:49.581760,0.45556640625,-0.52117919921875,-0.57281494140625,0.43896484375,-0.3125,-0.17578125,0.078125,0.0078125,0.00390625,-0.001953125
2026-09-07T14:48:49.682133,0.4573974609375,-0.51995849609375,-0.57366943359375,0.43743896484375,0.02734375,0.26171875,-0.40625,-0.0234375,0.00390625,-0.001953125
2026-09-07T14:48:49.789247,0.4603271484375,-0.51788330078125,-0.5753173828125,0.4346923828125,0.15625,-0.14453125,0.1484375,-0.0234375,0.00390625,0.001953125
2026-09-07T14:48:49.890965,0.46234130859375,-0.51690673828125,-0.57586669921875,0.43292236328125,0.0703125,-0.015625,0.1015625,-0.017578125,0.0078125,-0.005859375
2026-09-07T14:48:49.989158,0.46343994140625,-0.51617431640625,-0.576171875,0.4322509765625,-0.1484375,-0.19921875,0.14453125,0.015625,0.00390625,-0.001953125
2026-09-07T14:48:50.088961,0.46478271484375,-0.515869140625,-0.57623291015625,0.4310302734375,-0.01171875,-0.1640625,-0.0234375,0.03515625,0.001953125,-0.0234375
2026-09-07T14:48:50.176894,0.46636962890625,-0.51580810546875,-0.57623291015625,0.42938232421875,-0.15625,0.2421875,-0.0390625,0.04296875,0.00390625,-0.017578125
2026-09-07T14:48:50.292439,0.46826171875,-0.5155029296875,-0.576416015625,0.427490234375,-0.1328125,-0.15625,-0.01953125,0.037109375,0.00390625,-0.029296875
2026-09-07T14:48:50.390649,0.4703369140625,-0.514892578125,-0.57684326171875,0.42535400390625,-0.046875,0.32421875,-0.01953125,0.044921875,0.00390625,-0.021484375
2026-09-07T14:48:50.490634,0.47216796875,-0.514892578125,-0.5767822265625,0.42340087890625,0.0859375,0.046875,0.203125,0.03125,0.00390625,0.0078125
2026-09-07T14:48:50.590601,0.47344970703125,-0.5155029296875,-0.57611083984375,0.422119140625,0.7734375,0.20703125,0.06640625,0.056640625,0.001953125,0.015625
2026-09-07T14:48:50.692598,0.47406005859375,-0.51666259765625,-0.574951171875,0.42156982421875,0.74609375,0.265625,-0.06640625,0.017578125,0.00390625,0.033203125
2026-09-07T14:48:50.795181,0.472900390625,-0.518310546875,-0.57342529296875,0.4229736328125,-0.921875,1.625,1.57421875,-0.021484375,0.0,0.09765625
2026-09-07T14:48:50.894987,0.46929931640625,-0.52197265625,-0.57025146484375,0.42681884765625,-0.2421875,2.60546875,0.34765625,0.033203125,-0.009765625,0.1328125
2026-09-07T14:48:50.993128,0.465087890625,-0.52581787109375,-0.56719970703125,0.43072509765625,0.8359375,-1.48046875,-0.2109375,-0.013671875,-0.005859375,0.14453125
2026-09-07T14:48:51.096022,0.4613037109375,-0.5289306640625,-0.5645751953125,0.4344482421875,1.4140625,-3.9609375,0.39453125,0.03515625,-0.001953125,0.05859375
2026-09-07T14:48:51.195613,0.4615478515625,-0.531005859375,-0.56256103515625,0.4342041015625,2.4140625,-4.55859375,-1.02734375,0.08984375,0.001953125,-0.1015625
2026-09-07T14:48:51.295795,0.4677734375,-0.5296630859375,-0.56317138671875,0.42840576171875,0.74609375,-0.89453125,-1.484375,0.0859375,0.033203125,-0.3515625
2026-09-07T14:48:51.393707,0.47900390625,-0.5238037109375,-0.566650390625,0.41845703125,-0.78515625,2.8125,0.26953125,0.052734375,0.041015625,-0.314453125
2026-09-07T14:48:51.492983,0.48760986328125,-0.5184326171875,-0.56976318359375,0.41094970703125,-2.05859375,4.9765625,0.46875,-0.001953125,0.0078125,-0.025390625
2026-09-07T14:48:51.594474,0.48712158203125,-0.51837158203125,-0.56939697265625,0.41204833984375,-1.36328125,2.8125,0.19921875,-0.03515625,-0.01171875,0.236328125
2026-09-07T14:48:51.695571,0.47857666015625,-0.52374267578125,-0.56549072265625,0.42047119140625,0.8359375,-2.10546875,0.3828125,-0.052734375,-0.02734375,0.3515625
2026-09-07T14:48:51.795684,0.4678955078125,-0.53173828125,-0.5595703125,0.43035888671875,3.84765625,-2.859375,0.54296875,-0.01171875,-0.03515625,0.27734375
2026-09-07T14:48:51.897918,0.460693359375,-0.537353515625,-0.55560302734375,0.43621826171875,2.37890625,-1.578125,-0.30859375,-0.0078125,0.00390625,-0.03515625
2026-09-07T14:48:51.992644,0.4603271484375,-0.53680419921875,-0.5557861328125,0.43707275390625,1.046875,-0.015625,0.06640625,-0.001953125,0.03515625,-0.158203125
2026-09-07T14:48:52.092687,0.46307373046875,-0.5340576171875,-0.5570068359375,0.43597412109375,0.2109375,1.08203125,0.265625,0.001953125,0.02734375,-0.11328125
2026-09-07T14:48:52.193160,0.46533203125,-0.53192138671875,-0.55792236328125,0.43499755859375,0.37109375,1.05859375,0.19921875,-0.021484375,0.01171875,0.00390625
2026-09-07T14:48:52.293287,0.46392822265625,-0.53155517578125,-0.55780029296875,0.43707275390625,1.16796875,-0.16796875,0.1953125,-0.0234375,0.0,0.044921875
2026-09-07T14:48:52.392424,0.461669921875,-0.532470703125,-0.55694580078125,0.43951416015625,1.3515625,-0.7734375,0.296875,-0.017578125,0.00390625,0.037109375
2026-09-07T14:48:52.493908,0.46038818359375,-0.5328369140625,-0.5565185546875,0.44097900390625,1.2109375,-0.765625,0.609375,-0.0234375,0.00390625,-0.01953125
2026-09-07T14:48:52.593819,0.460205078125,-0.5321044921875,-0.55718994140625,0.441162109375,0.72265625,-0.28125,0.44140625,-0.009765625,-0.01171875,-0.021484375
2026-09-07T14:48:52.818665,0.4285888671875,-0.54656982421875,-0.544921875,0.4697265625,-0.359375,0.51953125,-0.1015625,-0.001953125,-0.00390625,0.02734375
2026-09-07T14:48:52.914106,0.42535400390625,-0.54803466796875,-0.54351806640625,0.47259521484375,0.02734375,0.0234375,-0.0234375,-0.001953125,-0.005859375,0.013671875
2026-09-07T14:48:53.014364,0.4193115234375,-0.55133056640625,-0.540283203125,0.477783203125,0.1328125,-0.16796875,-0.109375,-0.00390625,-0.00390625,0.001953125
2026-09-07T14:48:53.114792,0.41693115234375,-0.5528564453125,-0.5386962890625,0.47991943359375,-0.04296875,-0.16015625,0.10546875,-0.001953125,0.0,-0.005859375
2026-09-07T14:48:53.214040,0.41534423828125,-0.55413818359375,-0.5372314453125,0.4814453125,-0.12109375,0.17578125,-0.10546875,-0.00390625,0.00390625,-0.00390625
2026-09-07T14:48:53.325623,0.41436767578125,-0.55511474609375,-0.5360107421875,0.4825439453125,-0.07421875,-0.11328125,-0.08203125,0.001953125,0.005859375,-0.0078125
2026-09-07T14:48:53.553356,0.4136962890625,-0.55535888671875,-0.53564453125,0.4832763671875,-0.1328125,0.12109375,0.046875,-0.009765625,-0.00390625,0.005859375
2026-09-07T14:48:53.642864,0.41302490234375,-0.5556640625,-0.5355224609375,0.483642578125,0.00390625,0.14453125,0.16796875,0.005859375,-0.005859375,0.001953125
2026-09-07T14:48:53.867043,0.4119873046875,-0.555419921875,-0.5364990234375,0.48370361328125,0.09765625,-0.359375,0.25,0.01953125,-0.00390625,-0.009765625
2026-09-07T14:48:53.968152,0.41180419921875,-0.5552978515625,-0.5367431640625,0.48370361328125,-0.015625,0.24609375,-0.24609375,0.005859375,-0.00390625,-0.00390625
2026-09-07T14:48:54.068895,0.4117431640625,-0.55517578125,-0.53704833984375,0.4835205078125,0.18359375,-0.2890625,0.16796875,0.00390625,-0.001953125,-0.005859375
2026-09-07T14:48:54.167607,0.41180419921875,-0.5552978515625,-0.537109375,0.4832763671875,0.09765625,-0.23046875,-0.0234375,0.009765625,-0.005859375,-0.00390625
2026-09-07T14:48:54.257470,0.41180419921875,-0.555419921875,-0.537109375,0.483154296875,0.04296875,0.22265625,-0.22265625,-0.005859375,-0.00390625,0.00390625
2026-09-07T14:48:54.789692,0.41180419921875,-0.555419921875,-0.53717041015625,0.48309326171875,-0.140625,0.27734375,-0.12890625,-0.005859375,-0.00390625,0.00390625
2026-09-07T14:48:54.889942,0.41180419921875,-0.555419921875,-0.53717041015625,0.48309326171875,-0.140625,0.27734375,-0.12890625,-0.005859375,-0.00390625,0.00390625
2026-09-07T14:48:54.989977,0.41180419921875,-0.555419921875,-0.53717041015625,0.48309326171875,-0.140625,0.27734375,-0.12890625,-0.005859375,-0.00390625,0.00390625
2026-09-07T14:48:55.090024,0.41180419921875,-0.555419921875,-0.53717041015625,0.48309326171875,-0.140625,0.27734375,-0.12890625,-0.005859375,-0.00390625,0.00390625
2026-09-07T14:48:55.189994,0.41180419921875,-0.555419921875,-0.53717041015625,0.48309326171875,-0.140625,0.27734375,-0.12890625,-0.005859375,-0.00390625,0.00390625
2026-09-07T14:48:55.290415,0.41180419921875,-0.555419921875,-0.53717041015625,0.48309326171875,-0.140625,0.27734375,-0.12890625,-0.005859375,-0.00390625,0.00390625
2026-09-07T14:48:55.390337,0.41180419921875,-0.555419921875,-0.53717041015625,0.48309326171875,-0.140625,0.27734375,-0.12890625,-0.005859375,-0.00390625,0.00390625
2026-09-07T14:48:55.490423,0.41180419921875,-0.555419921875,-0.53717041015625,0.48309326171875,-0.140625,0.27734375,-0.12890625,-0.005859375,-0.00390625,0.00390625
2026-09-07T14:48:55.590795,0.41180419921875,-0.555419921875,-0.53717041015625,0.48309326171875,-0.140625,0.27734375,-0.12890625,-0.005859375,-0.00390625,0.00390625
2026-09-07T14:48:55.690312,0.41180419921875,-0.555419921875,-0.53717041015625,0.48309326171875,-0.140625,0.27734375,-0.12890625,-0.005859375,-0.00390625,0.00390625
2026-09-07T14:48:55.790783,0.41180419921875,-0.555419921875,-0.53717041015625,0.48309326171875,-0.140625,0.27734375,-0.12890625,-0.005859375,-0.00390625,0.00390625
2026-09-07T14:48:55.891117,0.41180419921875,-0.555419921875,-0.53717041015625,0.48309326171875,-0.140625,0.27734375,-0.12890625,-0.005859375,-0.00390625,0.00390625
2026-09-07T14:48:55.991226,0.41180419921875,-0.555419921875,-0.53717041015625,0.48309326171875,-0.140625,0.27734375,-0.12890625,-0.005859375,-0.00390625,0.00390625
2026-09-07T14:48:56.094556,0.41180419921875,-0.555419921875,-0.53717041015625,0.48309326171875,-0.140625,0.27734375,-0.12890625,-0.005859375,-0.00390625,0.00390625
2026-09-07T14:48:56.191155,0.41180419921875,-0.555419921875,-0.53717041015625,0.48309326171875,-0.140625,0.27734375,-0.12890625,-0.005859375,-0.00390625,0.00390625
2026-09-07T14:48:56.292817,0.41180419921875,-0.555419921875,-0.53717041015625,0.48309326171875,-0.140625,0.27734375,-0.12890625,-0.005859375,-0.00390625,0.00390625
2026-09-07T14:48:56.392579,0.41180419921875,-0.555419921875,-0.53717041015625,0.48309326171875,-0.140625,0.27734375,-0.12890625,-0.005859375,-0.00390625,0.00390625
2026-09-07T14:48:56.493009,0.41180419921875,-0.555419921875,-0.53717041015625,0.48309326171875,-0.140625,0.27734375,-0.12890625,-0.005859375,-0.00390625,0.00390625
2026-09-07T14:48:56.593537,0.41180419921875,-0.555419921875,-0.53717041015625,0.48309326171875,-0.140625,0.27734375,-0.12890625,-0.005859375,-0.00390625,0.00390625
2026-09-07T14:48:56.693129,0.41180419921875,-0.555419921875,-0.53717041015625,0.48309326171875,-0.140625,0.27734375,-0.12890625,-0.005859375,-0.00390625,0.00390625
2026-09-07T14:48:58.713968,0.5340576171875,0.46051025390625,0.513671875,0.48870849609375,-0.21484375,0.0390625,0.30078125,-0.021484375,0.0078125,-0.052734375
2026-09-07T14:48:58.933562,0.52679443359375,0.46124267578125,0.5137939453125,0.4957275390625,-0.50390625,0.75390625,0.34765625,0.001953125,-0.005859375,0.0
2026-09-07T14:48:59.007581,0.5264892578125,0.46112060546875,0.513916015625,0.49603271484375,-0.3125,0.5,0.26171875,0.005859375,-0.00390625,0.009765625
2026-09-07T14:48:59.127506,0.52593994140625,0.46044921875,0.5146484375,0.4964599609375,-0.45703125,0.56640625,0.3671875,-0.009765625,-0.001953125,0.03515625
2026-09-07T14:48:59.216149,0.5257568359375,0.46044921875,0.5147705078125,0.49664306640625,-0.41015625,0.62890625,0.19921875,0.017578125,0.00390625,0.005859375
2026-09-07T14:48:59.325836,0.52545166015625,0.46044921875,0.514892578125,0.49676513671875,-0.25,0.31640625,0.23046875,-0.0078125,-0.00390625,0.001953125
2026-09-07T14:48:59.415956,0.5247802734375,0.4603271484375,0.51507568359375,0.4974365234375,0.1171875,0.40625,-0.015625,-0.01171875,0.001953125,0.009765625
2026-09-07T14:48:59.526353,0.52362060546875,0.460205078125,0.51556396484375,0.49822998046875,-0.609375,0.46875,0.08203125,0.0078125,0.0078125,0.00390625
2026-09-07T14:48:59.624573,0.52325439453125,0.46063232421875,0.5155029296875,0.49822998046875,-0.08203125,0.21484375,0.0390625,0.001953125,0.015625,-0.005859375
2026-09-07T14:48:59.721472,0.5223388671875,0.46185302734375,0.51531982421875,0.498291015625,-0.44140625,0.0,0.4296875,0.025390625,0.015625,-0.021484375
2026-09-07T14:48:59.823912,0.52166748046875,0.46319580078125,0.51458740234375,0.49853515625,-0.40234375,0.05859375,-0.0078125,0.01171875,0.005859375,-0.015625
2026-09-07T14:48:59.923636,0.51885986328125,0.464599609375,0.5137939453125,0.50091552734375,-0.63671875,0.3984375,0.0,0.03515625,0.0078125,-0.01171875
2026-09-07T14:49:00.024325,0.51812744140625,0.46563720703125,0.51324462890625,0.5013427734375,-0.5078125,0.41796875,0.20703125,0.041015625,0.00390625,0.01953125
2026-09-07T14:49:00.124279,0.5184326171875,0.46649169921875,0.51275634765625,0.50067138671875,-0.62109375,0.2109375,-0.03125,0.064453125,0.00390625,-0.013671875
2026-09-07T14:49:00.202972,0.51904296875,0.46771240234375,0.51190185546875,0.49981689453125,-0.26171875,-0.71484375,0.4375,0.037109375,0.001953125,0.02734375
2026-09-07T14:49:00.327999,0.51995849609375,0.4705810546875,0.5093994140625,0.498779296875,-0.5234375,-0.0703125,-0.15234375,0.03515625,0.0,-0.015625
2026-09-07T14:49:00.424596,0.5196533203125,0.4718017578125,0.50823974609375,0.4990234375,-0.78125,0.55859375,-0.09765625,0.01171875,0.00390625,-0.01953125
2026-09-07T14:49:00.524632,0.51983642578125,0.47186279296875,0.508056640625,0.4990234375,-0.65234375,0.54296875,0.06640625,0.0,0.0,0.0390625
2026-09-07T14:49:00.624478,0.51995849609375,0.47161865234375,0.50811767578125,0.4990234375,-0.734375,0.6484375,-0.1875,-0.00390625,-0.00390625,0.01953125
2026-09-07T14:49:00.721976,0.51983642578125,0.4715576171875,0.50799560546875,0.49932861328125,-0.6796875,-0.4765625,0.37890625,-0.001953125,0.0,-0.0078125
2026-09-07T14:49:00.825513,0.5185546875,0.47210693359375,0.50738525390625,0.50079345703125,-0.65625,0.50390625,-0.1953125,-0.01953125,-0.00390625,-0.005859375
2026-09-07T14:49:00.923887,0.51739501953125,0.47186279296875,0.507568359375,0.50201416015625,-0.6640625,0.9140625,0.01953125,-0.044921875,-0.001953125,0.021484375
2026-09-07T14:49:01.024071,0.5169677734375,0.4713134765625,0.50799560546875,0.5025634765625,-0.79296875,0.43359375,0.0703125,0.0,-0.00390625,0.01953125
2026-09-07T14:49:01.125562,0.51678466796875,0.469970703125,0.50885009765625,0.50311279296875,-0.609375,0.5234375,-0.171875,-0.033203125,-0.005859375,0.033203125
2026-09-07T14:49:01.211221,0.51629638671875,0.4696044921875,0.50909423828125,0.50372314453125,-0.34375,0.5859375,0.109375,-0.021484375,-0.0078125,0.03125
2026-09-07T14:49:01.312743,0.51556396484375,0.468994140625,0.5093994140625,0.50469970703125,-0.48828125,0.42578125,0.25390625,-0.02734375,-0.001953125,0.00390625
2026-09-07T14:49:01.412087,0.51458740234375,0.46844482421875,0.50982666015625,0.50579833984375,-0.3671875,0.25390625,-0.16015625,-0.052734375,0.0,0.005859375
2026-09-07T14:49:01.516737,0.51300048828125,0.467529296875,0.5107421875,0.50738525390625,-0.37890625,-0.11328125,-0.11328125,-0.046875,-0.001953125,0.009765625
2026-09-07T14:49:01.611014,0.51141357421875,0.46685791015625,0.51141357421875,0.50885009765625,-0.34765625,0.1328125,-0.1015625,-0.05078125,0.005859375,-0.0078125
2026-09-07T14:49:01.717752,0.509521484375,0.46630859375,0.51202392578125,0.5106201171875,-0.296875,-0.06640625,-0.23828125,-0.037109375,0.00390625,-0.28515625
2026-09-07T14:49:01.811558,0.5069580078125,0.46710205078125,0.5113525390625,0.51312255859375,-0.234375,-0.92578125,0.296875,0.009765625,-0.001953125,-0.033203125
2026-09-07T14:49:01.916456,0.505126953125,0.46917724609375,0.50946044921875,0.5150146484375,-0.5,-0.54296875,0.48828125,0.01171875,-0.00390625,-0.029296875
2026-09-07T14:49:02.016994,0.5042724609375,0.47100830078125,0.507568359375,0.5159912109375,-0.62109375,0.4140625,0.12890625,0.021484375,-0.00390625,-0.015625
2026-09-07T14:49:02.116588,0.50457763671875,0.472412109375,0.50592041015625,0.5159912109375,-0.4453125,-0.3125,0.19921875,0.052734375,-0.009765625,0.013671875
2026-09-07T14:49:02.216360,0.505859375,0.47357177734375,0.50445556640625,0.51513671875,-0.62890625,-0.0078125,-0.03125,0.04296875,-0.005859375,0.021484375
2026-09-07T14:49:02.316395,0.50732421875,0.474609375,0.503173828125,0.51397705078125,-0.50390625,-0.046875,0.4453125,0.044921875,-0.009765625,0.013671875
2026-09-07T14:49:02.417149,0.508544921875,0.47601318359375,0.50152587890625,0.51312255859375,-0.7109375,0.13671875,-0.44140625,0.04296875,0.0,-0.0078125
2026-09-07T14:49:02.516203,0.50830078125,0.477783203125,0.49969482421875,0.5135498046875,-0.765625,0.55078125,-0.37890625,0.005859375,-0.00390625,0.02734375
2026-09-07T14:49:02.616235,0.50836181640625,0.477783203125,0.49945068359375,0.51361083984375,-0.58203125,0.3515625,-0.06640625,-0.013671875,-0.00390625,0.044921875
2026-09-07T14:49:02.716955,0.508544921875,0.477294921875,0.49969482421875,0.513671875,-0.65234375,0.26953125,-0.6015625,-0.01953125,-0.0078125,0.025390625
2026-09-07T14:49:02.816616,0.50897216796875,0.47674560546875,0.4998779296875,0.5135498046875,-0.6875,0.10546875,0.1640625,-0.01171875,-0.0078125,0.03515625
2026-09-07T14:49:02.919193,0.50872802734375,0.47650146484375,0.49993896484375,0.5140380859375,-0.375,0.29296875,-0.2265625,-0.01171875,-0.001953125,0.0
2026-09-07T14:49:03.018842,0.50836181640625,0.4765625,0.4998779296875,0.51434326171875,-0.6484375,-0.25390625,0.0390625,-0.021484375,0.0,0.009765625
2026-09-07T14:49:03.126122,0.50726318359375,0.47784423828125,0.49853515625,0.51556396484375,-0.54296875,-0.22265625,-0.11328125,-0.01171875,-0.001953125,0.015625
2026-09-07T14:49:03.225037,0.5018310546875,0.485107421875,0.49139404296875,0.52093505859375,-0.09375,0.2890625,0.05859375,-0.015625,0.0,-0.001953125
2026-09-07T14:49:03.327547,0.4986572265625,0.48968505859375,0.486572265625,0.524169921875,-0.26171875,0.15234375,-0.02734375,0.009765625,-0.00390625,-0.009765625
2026-09-07T14:49:03.438627,0.49627685546875,0.4925537109375,0.48358154296875,0.52655029296875,-0.109375,0.08203125,0.00390625,0.0,-0.00390625,-0.005859375
2026-09-07T14:49:03.524211,0.4942626953125,0.4947509765625,0.481201171875,0.528564453125,0.02734375,-0.4140625,0.05078125,0.009765625,-0.001953125,-0.015625
2026-09-07T14:49:03.625964,0.49273681640625,0.49652099609375,0.479248046875,0.5301513671875,0.0,0.0390625,0.09765625,-0.005859375,-0.001953125,0.00390625
2026-09-07T14:49:03.726258,0.4915771484375,0.498046875,0.4776611328125,0.53118896484375,-0.19921875,0.109375,-0.05859375,0.001953125,-0.001953125,-0.009765625
2026-09-07T14:49:03.826132,0.4908447265625,0.49920654296875,0.47650146484375,0.53179931640625,-0.1171875,0.0625,0.125,0.009765625,0.001953125,-0.01171875
2026-09-07T14:49:03.925615,0.4903564453125,0.5,0.4754638671875,0.53240966796875,-0.19921875,0.23046875,-0.01953125,0.0,-0.00390625,-0.00390625
2026-09-07T14:49:04.021891,0.48907470703125,0.50152587890625,0.4737548828125,0.53369140625,-0.52734375,0.19921875,-0.1171875,-0.001953125,-0.00390625,-0.013671875
2026-09-07T14:49:04.126406,0.48876953125,0.50140380859375,0.47381591796875,0.53399658203125,-0.6015625,0.328125,-0.0703125,-0.009765625,-0.001953125,-0.005859375
2026-09-07T14:49:04.226793,0.4886474609375,0.50128173828125,0.473876953125,0.53424072265625,-0.50390625,0.12890625,-0.04296875,-0.001953125,-0.001953125,0.005859375
2026-09-07T14:49:04.335025,0.48828125,0.50164794921875,0.47344970703125,0.53460693359375,-0.1796875,-0.109375,-0.04296875,-0.00390625,-0.001953125,0.005859375
2026-09-07T14:49:04.425957,0.4876708984375,0.50262451171875,0.47235107421875,0.53521728515625,-0.28125,0.12109375,-0.0703125,0.01171875,-0.001953125,-0.001953125
2026-09-07T14:49:04.519298,0.48748779296875,0.50360107421875,0.47113037109375,0.5355224609375,-0.44921875,0.0,-0.02734375,0.0078125,-0.001953125,0.00390625
2026-09-07T14:49:04.624440,0.48736572265625,0.50390625,0.47064208984375,0.5357666015625,-0.203125,0.26171875,-0.0546875,0.005859375,-0.005859375,0.001953125
2026-09-07T14:49:04.724047,0.487060546875,0.5045166015625,0.4698486328125,0.5361328125,-0.1875,-0.31640625,-0.00390625,0.0078125,-0.00390625,0.00390625
2026-09-07T14:49:04.824163,0.4869384765625,0.50518798828125,0.46905517578125,0.53631591796875,-0.28515625,-0.24609375,-0.03125,0.015625,-0.00390625,-0.00390625
2026-09-07T14:49:04.923608,0.4844970703125,0.50872802734375,0.465087890625,0.5386962890625,0.0625,0.05078125,-0.09375,0.017578125,-0.005859375,-0.001953125
2026-09-07T14:49:05.023639,0.4825439453125,0.50384521484375,0.46173095703125,0.53271484375,-0.01953125,-0.1640625,-0.0390625,0.013671875,-0.001953125,0.0
2026-09-07T14:49:05.124395,0.48138427734375,0.51361083984375,0.45953369140625,0.54156494140625,-0.16015625,-0.26953125,0.13671875,0.015625,-0.00390625,-0.00390625
2026-09-07T14:49:05.224715,0.48077392578125,0.5150146484375,0.45782470703125,0.54229736328125,-0.08984375,-0.15625,-0.03125,0.001953125,-0.00390625,0.001953125
2026-09-07T14:49:05.339199,0.48040771484375,0.51629638671875,0.456298828125,0.54266357421875,-0.05078125,-0.19140625,0.23828125,0.0078125,-0.001953125,-0.00390625
2026-09-07T14:49:05.444240,0.48016357421875,0.51751708984375,0.454833984375,0.5428466796875,0.04296875,0.20703125,-0.11328125,0.00390625,0.0,0.005859375
2026-09-07T14:49:05.523528,0.48016357421875,0.518310546875,0.453857421875,0.54296875,-0.1796875,0.07421875,0.046875,0.001953125,-0.00390625,0.009765625
2026-09-07T14:49:05.624218,0.4801025390625,0.5186767578125,0.45330810546875,0.5430908203125,-0.07421875,-0.03125,-0.06640625,0.001953125,0.0,0.00390625
2026-09-07T14:49:05.732887,0.47998046875,0.51922607421875,0.45269775390625,0.54327392578125,0.07421875,0.02734375,-0.07421875,-0.009765625,-0.00390625,0.001953125
2026-09-07T14:49:05.823760,0.47967529296875,0.51971435546875,0.45220947265625,0.54339599609375,0.02734375,-0.25390625,0.19140625,-0.005859375,0.001953125,0.00390625
2026-09-07T14:49:05.924554,0.4796142578125,0.52032470703125,0.45159912109375,0.54339599609375,-0.1328125,-0.109375,0.15234375,0.01171875,0.0,-0.009765625
2026-09-07T14:49:06.032519,0.47955322265625,0.520751953125,0.4510498046875,0.54345703125,0.203125,0.23046875,0.0234375,0.001953125,0.0,-0.005859375
2026-09-07T14:49:06.132673,0.47943115234375,0.52105712890625,0.4508056640625,0.54351806640625,0.140625,0.12890625,-0.015625,0.009765625,0.0,-0.013671875
2026-09-07T14:49:06.232863,0.479248046875,0.521240234375,0.4505615234375,0.543701171875,0.0703125,0.00390625,0.03125,-0.009765625,0.0,-0.001953125
2026-09-07T14:49:06.334966,0.4791259765625,0.52117919921875,0.45068359375,0.5438232421875,0.26953125,-0.0703125,0.0546875,-0.00390625,-0.00390625,0.0
2026-09-07T14:49:06.423142,0.4791259765625,0.52105712890625,0.45074462890625,0.5438232421875,0.0546875,-0.1015625,-0.0703125,-0.005859375,0.001953125,0.00390625
2026-09-07T14:49:06.531382,0.4793701171875,0.5208740234375,0.4510498046875,0.5435791015625,0.0546875,0.09765625,-0.16796875,0.0,0.00390625,0.0078125
2026-09-07T14:49:06.630826,0.47979736328125,0.520751953125,0.4515380859375,0.54290771484375,0.09765625,0.09765625,-0.18359375,0.0,0.013671875,0.00390625
2026-09-07T14:49:06.719824,0.48016357421875,0.52069091796875,0.45245361328125,0.5418701171875,0.05078125,-0.03125,-0.04296875,-0.009765625,0.017578125,-0.00390625
2026-09-07T14:49:06.819663,0.48138427734375,0.52032470703125,0.453857421875,0.5399169921875,-0.01953125,0.07421875,0.1328125,-0.009765625,0.015625,-0.001953125
2026-09-07T14:49:06.919795,0.48150634765625,0.5198974609375,0.45501708984375,0.53924560546875,0.01953125,0.08984375,0.15625,-0.2734375,0.005859375,0.00390625
2026-09-07T14:49:07.149000,0.482177734375,0.51702880859375,0.458740234375,0.53826904296875,0.95703125,-0.0859375,0.11328125,-0.009765625,0.0,0.0078125
2026-09-07T14:49:07.239620,0.485595703125,0.5103759765625,0.4658203125,0.53546142578125,0.62109375,-0.0234375,0.1640625,-0.001953125,0.0,0.00390625
2026-09-07T14:49:07.340543,0.48724365234375,0.50775146484375,0.468505859375,0.53411865234375,0.41796875,0.125,-0.03515625,0.0078125,0.00390625,0.0
2026-09-07T14:49:07.441062,0.49078369140625,0.50244140625,0.47393798828125,0.53106689453125,0.265625,0.09375,-0.07421875,-0.001953125,0.00390625,-0.0078125
2026-09-07T14:49:07.540823,0.49432373046875,0.4974365234375,0.47918701171875,0.52783203125,0.12109375,-0.14453125,0.046875,0.0078125,0.001953125,-0.005859375
2026-09-07T14:49:07.640381,0.49774169921875,0.49310302734375,0.4835205078125,0.524658203125,0.09375,0.0859375,-0.08984375,0.0,0.0,-0.0078125
