timestamp,quat_i,quat_j,quat_k,quat_real,accel_x,accel_y,accel_z,gyro_x,gyro_y,gyro_z
2026-09-02T16:08:27.071617,0.46331787109375,0.53424072265625,0.46331787109375,0.53411865234375,-0.796875,9.390625,0.0,0.0,0.0,0.0
2026-09-02T16:08:27.214251,0.46331787109375,0.53424072265625,0.46331787109375,0.53411865234375,-0.734375,9.2265625,0.0390625,0.001953125,0.001953125,-0.00390625
2026-09-02T16:08:27.296229,0.46331787109375,0.5343017578125,0.46319580078125,0.53411865234375,-0.765625,9.0390625,0.0,0.001953125,0.0,-0.00390625
2026-09-02T16:08:27.382154,0.47296142578125,0.52569580078125,0.472900390625,0.525634765625,-0.75,8.8359375,0.0,0.001953125,0.001953125,0.0
2026-09-02T16:08:27.495963,0.477294921875,0.521728515625,0.47735595703125,0.52166748046875,0.0078125,-0.0390625,-0.03125,0.001953125,0.0,0.0
2026-09-02T16:08:27.591132,0.4776611328125,0.52142333984375,0.47772216796875,0.52130126953125,0.0078125,0.0,0.0546875,0.0,0.0,0.001953125
2026-09-02T16:08:27.690913,0.47784423828125,0.52130126953125,0.4779052734375,0.5211181640625,0.0078125,-0.03125,0.046875,0.001953125,0.001953125,0.001953125
2026-09-02T16:08:27.800229,0.47802734375,0.52117919921875,0.47802734375,0.52093505859375,-0.03125,0.0078125,0.0,0.001953125,0.0,-0.001953125
2026-09-02T16:08:27.897000,0.47821044921875,0.52099609375,0.47821044921875,0.520751953125,-0.0234375,0.046875,-0.0390625,0.00390625,0.0,0.0
2026-09-02T16:08:27.999184,0.47833251953125,0.52093505859375,0.47833251953125,0.5206298828125,-0.0234375,0.0390625,0.0078125,0.00390625,0.0,0.0
2026-09-02T16:08:28.097963,0.4783935546875,0.5208740234375,0.4783935546875,0.52056884765625,-0.03125,0.03125,0.046875,0.0,0.001953125,0.0
2026-09-02T16:08:28.197180,0.478515625,0.52081298828125,0.478515625,0.5203857421875,-0.03125,0.03125,-0.0390625,0.0,-0.001953125,-0.00390625
2026-09-02T16:08:28.296063,0.47857666015625,0.52069091796875,0.4786376953125,0.52032470703125,0.046875,0.0,-0.03125,0.0,0.0,-0.001953125
2026-09-02T16:08:28.395712,0.47869873046875,0.5206298828125,0.478759765625,0.52020263671875,0.0078125,-0.046875,0.0078125,0.0,0.00390625,0.00390625
2026-09-02T16:08:28.516444,0.47882080078125,0.5205078125,0.47882080078125,0.5201416015625,0.0078125,-0.0390625,0.0078125,0.0,0.0,0.0
2026-09-02T16:08:28.740155,0.4788818359375,0.5203857421875,0.47900390625,0.52001953125,-0.0390625,0.0,-0.0390625,-0.00390625,-0.00390625,-0.001953125
2026-09-02T16:08:28.817289,0.4788818359375,0.5203857421875,0.47906494140625,0.51995849609375,0.0078125,0.0,-0.03125,-0.001953125,0.001953125,0.0
2026-09-02T16:08:28.928067,0.47894287109375,0.52032470703125,0.4791259765625,0.5198974609375,0.0,0.0,0.0078125,0.001953125,0.00390625,0.0
2026-09-02T16:08:29.017498,0.47900390625,0.52032470703125,0.4791259765625,0.51983642578125,-0.03125,-0.0390625,0.5546875,0.001953125,0.0,0.001953125
2026-09-02T16:08:29.128224,0.47900390625,0.5203857421875,0.4791259765625,0.51983642578125,0.08984375,0.0,0.046875,0.001953125,0.001953125,-0.001953125
2026-09-02T16:08:29.215966,0.47900390625,0.5203857421875,0.4791259765625,0.51983642578125,-0.0703125,-0.046875,-0.078125,0.0,0.0,0.0
2026-09-02T16:08:29.310740,0.47900390625,0.520263671875,0.479248046875,0.519775390625,0.0078125,-0.0859375,-0.10546875,-0.00390625,0.001953125,0.0
2026-09-02T16:08:29.410542,0.47906494140625,0.520263671875,0.47930908203125,0.51971435546875,0.046875,0.0390625,-0.015625,-0.005859375,0.0,0.0
2026-09-02T16:08:29.510559,0.47918701171875,0.52032470703125,0.479248046875,0.51959228515625,0.0,-0.09375,0.09375,0.001953125,0.001953125,-0.00390625
2026-09-02T16:08:29.610315,0.479248046875,0.520263671875,0.479248046875,0.51953125,-0.0390625,0.03125,0.03125,0.00390625,-0.001953125,0.001953125
2026-09-02T16:08:29.709000,0.47918701171875,0.52020263671875,0.4793701171875,0.51959228515625,-0.0390625,0.03125,-0.09375,-0.001953125,0.0,0.0
2026-09-02T16:08:29.810542,0.4791259765625,0.5201416015625,0.47943115234375,0.5196533203125,-0.078125,-0.0078125,-0.0703125,-0.00390625,0.0,0.001953125
2026-09-02T16:08:29.910789,0.4791259765625,0.52020263671875,0.47943115234375,0.51959228515625,0.015625,-0.0078125,0.0625,-0.00390625,0.001953125,-0.001953125
2026-09-02T16:08:30.007515,0.4791259765625,0.52020263671875,0.47943115234375,0.51959228515625,0.0078125,0.0,0.078125,0.001953125,0.001953125,0.0
2026-09-02T16:08:30.110754,0.47918701171875,0.52020263671875,0.47943115234375,0.51953125,0.0390625,0.0078125,0.0234375,0.001953125,-0.001953125,0.001953125
2026-09-02T16:08:30.212923,0.47918701171875,0.52020263671875,0.4794921875,0.51953125,0.0,0.0390625,-0.09375,0.0,0.0,0.001953125
2026-09-02T16:08:30.310156,0.47918701171875,0.5201416015625,0.47955322265625,0.51947021484375,0.0078125,-0.0078125,-0.10546875,-0.00390625,0.001953125,0.0
2026-09-02T16:08:30.410498,0.4791259765625,0.52020263671875,0.47955322265625,0.51947021484375,0.0078125,-0.046875,0.1015625,0.0,0.0,0.0
2026-09-02T16:08:30.510699,0.47918701171875,0.52020263671875,0.47955322265625,0.51947021484375,0.046875,-0.5078125,0.046875,0.001953125,0.001953125,0.001953125
2026-09-02T16:08:30.610646,0.47918701171875,0.52020263671875,0.47955322265625,0.5194091796875,-0.03125,0.03125,-0.0078125,0.00390625,0.001953125,0.0
2026-09-02T16:08:30.710496,0.47918701171875,0.52020263671875,0.47955322265625,0.5194091796875,0.0078125,0.0390625,-0.0390625,0.0,0.001953125,0.0
2026-09-02T16:08:30.810500,0.4791259765625,-1.47979736328125,0.47955322265625,0.5194091796875,-0.03125,0.03125,0.0078125,0.0,0.001953125,0.001953125
2026-09-02T16:08:30.911241,0.4791259765625,0.520263671875,0.4796142578125,0.51934814453125,-0.03125,0.03125,0.046875,0.0,0.001953125,0.001953125
2026-09-02T16:08:31.011370,0.4791259765625,0.520263671875,0.4796142578125,0.51934814453125,-0.03125,-0.0078125,0.03125,-0.001953125,0.001953125,-0.00390625
2026-09-02T16:08:31.230629,0.4791259765625,0.52020263671875,0.479736328125,0.51934814453125,0.0078125,0.0234375,0.046875,0.0,0.0,0.0
2026-09-02T16:08:31.328382,0.4791259765625,0.52020263671875,0.47967529296875,0.51934814453125,-0.03125,-0.015625,0.046875,0.0,0.0,0.0
2026-09-02T16:08:31.428310,0.4791259765625,0.520263671875,0.47967529296875,0.519287109375,-0.0390625,-0.015625,0.0390625,0.001953125,0.0,0.0
2026-09-02T16:08:31.528769,0.47918701171875,-1.47979736328125,0.47967529296875,0.519287109375,-0.0390625,0.03125,-0.0078125,0.00390625,0.0,0.001953125
2026-09-02T16:08:31.630604,0.47918701171875,0.52020263671875,0.47967529296875,0.51922607421875,-0.03125,-0.0078125,-0.03125,0.00390625,0.0,0.001953125
2026-09-02T16:08:31.729775,0.4791259765625,0.52020263671875,0.479736328125,0.519287109375,0.0078125,-0.046875,0.0546875,-0.00390625,0.25,-0.00390625
2026-09-02T16:08:31.830599,0.4791259765625,0.52020263671875,0.479736328125,0.519287109375,0.0,0.03125,0.0390625,-0.00390625,0.0,-0.00390625
2026-09-02T16:08:31.930414,0.4791259765625,0.52020263671875,0.47979736328125,0.519287109375,0.0,-0.0078125,-0.0078125,-0.001953125,0.001953125,0.0
2026-09-02T16:08:32.035996,0.4791259765625,0.5201416015625,0.47979736328125,0.51934814453125,-0.0390625,0.03125,-0.0859375,0.0,0.0,-0.00390625
2026-09-02T16:08:32.151047,0.47906494140625,0.5201416015625,0.4798583984375,0.51934814453125,0.0,-0.0078125,0.0078125,0.0,0.0,-0.001953125
2026-09-02T16:08:32.257699,0.47906494140625,0.5201416015625,0.4798583984375,0.51934814453125,0.0,0.0,-0.0234375,-0.001953125,-0.001953125,0.0
2026-09-02T16:08:32.352941,0.4791259765625,0.52020263671875,0.47979736328125,0.519287109375,0.0,0.0390625,0.0546875,0.00390625,0.0,-0.00390625
2026-09-02T16:08:32.455363,0.4791259765625,0.52020263671875,0.47979736328125,0.51922607421875,0.0,0.0,0.0,0.001953125,0.0,0.0
2026-09-02T16:08:32.548115,0.4791259765625,0.5201416015625,0.4798583984375,0.519287109375,0.0,0.0,0.0,0.001953125,-0.001953125,0.0
2026-09-02T16:08:32.637510,0.4791259765625,0.5201416015625,0.4798583984375,0.519287109375,-0.0390625,0.0390625,0.0,-0.001953125,0.0,0.0
2026-09-02T16:08:32.733446,0.47906494140625,0.52008056640625,0.47991943359375,0.519287109375,0.0390625,-0.0078125,0.0390625,0.001953125,0.001953125,0.001953125
2026-09-02T16:08:32.831004,0.47906494140625,0.52008056640625,0.47991943359375,0.519287109375,0.0,-0.0078125,-0.0078125,0.0,0.001953125,-0.00390625
2026-09-02T16:08:32.959164,0.47906494140625,0.52008056640625,0.47991943359375,0.519287109375,0.0,0.0,-0.0078125,0.001953125,0.0,0.001953125
2026-09-02T16:08:33.038625,0.47906494140625,0.52008056640625,0.47991943359375,0.519287109375,0.0390625,-0.0078125,0.03125,0.0,-0.001953125,0.001953125
2026-09-02T16:08:33.147432,0.47906494140625,0.52008056640625,0.47998046875,0.519287109375,0.0390625,-0.0078125,-0.0390625,0.0,0.0,-0.001953125
2026-09-02T16:08:33.238034,0.47906494140625,0.52008056640625,0.47998046875,0.519287109375,0.0390625,0.0,0.0078125,0.0,0.0,-0.001953125
2026-09-02T16:08:33.346961,0.47906494140625,0.52008056640625,0.47998046875,0.519287109375,0.0,0.0,0.0390625,0.0,0.0,0.001953125
2026-09-02T16:08:33.437618,0.47906494140625,0.52008056640625,0.47998046875,0.51922607421875,-0.0390625,-0.0078125,-0.0078125,-0.00390625,0.001953125,0.001953125
2026-09-02T16:08:33.651425,0.47894287109375,0.5201416015625,0.47998046875,0.519287109375,-0.03125,0.0,0.0,0.0,0.0,0.001953125
2026-09-02T16:08:33.785241,0.47894287109375,0.5201416015625,0.47998046875,0.519287109375,-0.03125,0.0,0.0390625,0.001953125,0.0,0.0
2026-09-02T16:08:33.856469,0.47894287109375,0.5201416015625,0.47998046875,0.51934814453125,0.0078125,-0.0390625,0.0390625,0.0,0.001953125,-0.001953125
2026-09-02T16:08:33.965451,0.47894287109375,0.5201416015625,0.47998046875,0.51934814453125,0.0078125,0.0390625,-0.0078125,0.0,0.001953125,-0.001953125
2026-09-02T16:08:34.075137,0.4788818359375,0.5201416015625,0.47998046875,0.51934814453125,-0.0390625,0.0,0.0390625,0.001953125,0.001953125,-0.001953125
2026-09-02T16:08:34.155370,0.4788818359375,0.52020263671875,0.47998046875,0.51934814453125,0.0078125,0.0390625,-0.0390625,-0.001953125,0.001953125,0.0
2026-09-02T16:08:34.263286,0.4788818359375,0.52020263671875,0.47998046875,0.51934814453125,0.0078125,0.0,0.0,0.0,0.0,-0.001953125
2026-09-02T16:08:34.350163,0.4788818359375,0.52020263671875,0.47998046875,0.519287109375,0.0078125,0.0,0.0,0.00390625,0.001953125,0.0
2026-09-02T16:08:34.451855,0.4788818359375,0.52020263671875,0.47998046875,0.519287109375,0.0,0.0390625,-0.0390625,-0.001953125,0.0,0.0
2026-09-02T16:08:34.547566,0.47894287109375,0.52020263671875,0.47998046875,0.519287109375,0.0,0.0,0.0390625,0.0,-0.001953125,0.001953125
2026-09-02T16:08:34.681751,0.4788818359375,0.5201416015625,0.48004150390625,0.519287109375,0.0390625,0.0,-0.0078125,0.0,0.0,0.0
2026-09-02T16:08:34.753483,0.47894287109375,0.5201416015625,0.4801025390625,0.519287109375,-0.0078125,0.0,0.0,0.001953125,0.001953125,0.0
2026-09-02T16:08:34.874400,0.47894287109375,0.52008056640625,0.4801025390625,0.51922607421875,-0.0078125,0.0390625,0.0,-0.00390625,0.0,0.0
2026-09-02T16:08:34.952930,0.47894287109375,0.52008056640625,0.48016357421875,0.51922607421875,0.0390625,-0.0078125,0.0,-0.001953125,0.001953125,0.0
2026-09-02T16:08:35.061165,0.47894287109375,0.52008056640625,0.48016357421875,0.5191650390625,-0.0390625,-0.0078125,0.0,0.0,0.0,0.0
2026-09-02T16:08:35.151465,0.47900390625,0.5201416015625,0.48016357421875,0.5191650390625,0.0,-0.0078125,-0.03125,0.0,0.0,0.0
2026-09-02T16:08:35.277772,0.47900390625,0.5201416015625,0.4801025390625,0.51910400390625,-0.0390625,0.0,0.0078125,0.001953125,0.001953125,-0.00390625
2026-09-02T16:08:35.363156,0.47900390625,0.52020263671875,0.4801025390625,0.51904296875,0.0,-0.0078125,-0.0234375,-0.00390625,0.001953125,0.001953125
2026-09-02T16:08:35.462094,0.47906494140625,0.52020263671875,0.48004150390625,0.51904296875,-0.0078125,-0.0078125,0.0546875,0.00390625,0.00390625,-0.001953125
2026-09-02T16:08:35.572100,0.4791259765625,0.520263671875,0.48004150390625,0.5189208984375,-0.0390625,-0.0390625,0.0078125,-0.00390625,-0.001953125,0.0
2026-09-02T16:08:35.679164,0.4791259765625,0.520263671875,0.48004150390625,0.51898193359375,0.03125,-0.046875,0.0078125,0.00390625,0.0,0.001953125
2026-09-02T16:08:35.749927,0.4791259765625,0.52032470703125,0.47998046875,0.5189208984375,-0.0078125,-0.0078125,0.0078125,0.001953125,0.001953125,0.0
2026-09-02T16:08:35.856225,0.4791259765625,0.520263671875,0.48004150390625,0.51898193359375,-0.0078125,-0.0390625,-0.03125,0.005859375,0.001953125,-0.00390625
2026-09-02T16:08:35.958355,0.4791259765625,0.52032470703125,0.48004150390625,0.5189208984375,0.0,0.03125,-0.03125,0.0,0.001953125,0.001953125
2026-09-02T16:08:36.058877,0.4791259765625,0.52032470703125,0.48004150390625,0.5189208984375,0.0390625,-0.0078125,0.0390625,0.0,0.0,0.0
2026-09-02T16:08:36.178188,0.47906494140625,0.520263671875,0.48004150390625,0.51898193359375,-0.046875,0.0390625,0.0,0.001953125,0.0,0.0
2026-09-02T16:08:36.275902,0.4791259765625,0.520263671875,0.4801025390625,0.51898193359375,-0.046875,0.0,0.0,0.0,0.0,0.0
2026-09-02T16:08:36.376145,0.4791259765625,0.52020263671875,0.4801025390625,0.5189208984375,0.03125,0.0,-0.03125,0.0,0.0,0.0
2026-09-02T16:08:36.477392,0.47918701171875,0.52020263671875,0.4801025390625,0.51885986328125,-0.0078125,0.0,0.046875,0.0,0.0,0.0
2026-09-02T16:08:36.576208,0.47918701171875,0.52020263671875,0.4801025390625,0.51885986328125,0.0,-0.0078125,0.0078125,0.0,0.0,0.0
2026-09-02T16:08:36.669456,0.47918701171875,0.52020263671875,0.4801025390625,0.51885986328125,0.0390625,-0.046875,0.0,0.0,0.0,0.0
2026-09-02T16:08:36.758732,0.47918701171875,0.52020263671875,0.48016357421875,0.51885986328125,-0.0078125,0.0390625,-0.0390625,0.0,0.0,0.0
2026-09-02T16:08:37.025179,0.479248046875,0.52020263671875,0.48016357421875,0.51885986328125,-0.0390625,-0.0078125,0.078125,0.0,0.0,0.0
2026-09-02T16:08:37.118870,0.47918701171875,0.52020263671875,0.48016357421875,0.51885986328125,0.0390625,-0.0390625,0.0390625,0.0,0.0,0.0
2026-09-02T16:08:37.221887,0.47918701171875,0.52020263671875,0.48016357421875,0.5189208984375,0.0390625,-0.03125,-0.0078125,0.0,0.0,0.0
2026-09-02T16:08:37.296546,0.4791259765625,0.5201416015625,0.48016357421875,0.51898193359375,0.0,0.046875,-0.0078125,0.0,0.0,0.0
2026-09-02T16:08:37.402165,0.4791259765625,0.5201416015625,0.48016357421875,0.51898193359375,0.0,0.0,-0.046875,0.00390625,0.0,-0.001953125
2026-09-02T16:08:37.496692,0.47918701171875,0.52020263671875,0.4801025390625,0.5189208984375,0.0,-0.0078125,-0.0703125,0.00390625,0.001953125,0.001953125
2026-09-02T16:08:37.604011,0.479248046875,0.52032470703125,0.47998046875,0.518798828125,0.0390625,-0.046875,-0.0234375,0.00390625,0.001953125,0.0
2026-09-02T16:08:37.703280,0.47930908203125,0.5205078125,0.4798583984375,0.5186767578125,-0.0078125,0.0390625,0.0390625,0.00390625,0.0,0.0
2026-09-02T16:08:37.803782,0.4794921875,0.52069091796875,0.479736328125,0.51849365234375,-0.0078125,0.5390625,0.0390625,0.001953125,0.00390625,-0.001953125
2026-09-02T16:08:37.905012,0.4794921875,0.5208740234375,0.47967529296875,0.51837158203125,0.0078125,-0.0390625,0.0390625,0.0,0.001953125,0.0
2026-09-02T16:08:38.003275,0.4794921875,0.52099609375,0.4796142578125,0.518310546875,0.07421875,0.0,-0.0078125,0.0,-0.00390625,0.001953125
2026-09-02T16:08:38.101240,0.47955322265625,0.52099609375,0.47955322265625,0.518310546875,0.0234375,-0.046875,0.03125,0.001953125,0.001953125,0.0
2026-09-02T16:08:38.202802,0.4796142578125,0.52093505859375,0.4796142578125,0.5181884765625,-0.046875,-0.046875,0.0234375,0.0,0.0,0.00390625
2026-09-02T16:08:38.302071,0.4796142578125,0.52093505859375,0.4796142578125,0.5181884765625,0.0,0.0,-0.0546875,0.001953125,0.001953125,0.0
2026-09-02T16:08:38.402776,0.4796142578125,0.52099609375,0.47967529296875,0.5181884765625,0.0,0.03125,-0.0078125,0.0,0.001953125,-0.001953125
2026-09-02T16:08:38.503043,0.4796142578125,0.52099609375,0.4796142578125,0.5181884765625,-0.046875,0.0390625,-0.0078125,0.0,0.0,-0.001953125
2026-09-02T16:08:38.602948,0.47955322265625,0.52093505859375,0.47186279296875,0.51824951171875,-0.0390625,0.0390625,0.0234375,0.001953125,0.0,0.001953125
2026-09-02T16:08:38.703144,0.47955322265625,0.52093505859375,0.47967529296875,0.51824951171875,0.0,0.03125,-0.015625,0.0,0.0,0.0
2026-09-02T16:08:38.803234,0.47955322265625,0.52093505859375,0.47967529296875,0.51824951171875,-0.0390625,0.03125,0.0234375,0.0,0.0,-0.001953125
2026-09-02T16:08:39.018307,0.47955322265625,0.5208740234375,0.47967529296875,0.518310546875,0.0,-0.0078125,0.03125,0.0,0.001953125,0.001953125
2026-09-02T16:08:39.116225,0.4794921875,0.52093505859375,0.4796142578125,0.518310546875,0.0,-0.0078125,-0.015625,0.0,0.0,0.0
2026-09-02T16:08:39.216398,0.4794921875,0.52093505859375,0.4796142578125,0.518310546875,-0.0390625,0.03125,-0.0078125,0.0,0.0,0.0
2026-09-02T16:08:39.316395,0.47955322265625,0.52093505859375,0.4796142578125,0.518310546875,-0.0390625,-0.0078125,-0.0078125,0.0,0.001953125,-0.00390625
2026-09-02T16:08:39.417222,0.47955322265625,0.52093505859375,0.4796142578125,0.518310546875,-0.0390625,-0.0078125,0.03125,0.0,0.0,0.00390625
2026-09-02T16:08:39.522614,0.4794921875,0.52093505859375,0.4796142578125,0.518310546875,0.0,0.0,0.03125,-0.001953125,-0.001953125,0.001953125
2026-09-02T16:08:39.631998,0.4794921875,0.52093505859375,0.4796142578125,0.518310546875,-0.0390625,0.0390625,-0.015625,-0.00390625,0.001953125,-0.001953125
2026-09-02T16:08:39.731286,0.4794921875,0.5208740234375,0.4796142578125,0.51837158203125,-0.0390625,-0.0078125,-0.0078125,0.0,0.0,0.0
2026-09-02T16:08:39.821753,0.47943115234375,0.52093505859375,0.4796142578125,0.51837158203125,0.0078125,-0.046875,-0.0078125,0.00390625,0.001953125,0.0
2026-09-02T16:08:39.936211,0.4794921875,0.52099609375,0.47955322265625,0.51837158203125,0.0,0.0390625,0.0703125,0.001953125,0.0,0.0
2026-09-02T16:08:40.030907,0.4794921875,0.52099609375,0.47955322265625,0.518310546875,0.0,0.0390625,0.0234375,0.0,0.0,-0.00390625
2026-09-02T16:08:40.114775,0.4794921875,-1.47900390625,0.47955322265625,0.51837158203125,0.0,0.03125,-0.015625,0.001953125,0.0,0.0
2026-09-02T16:08:40.216310,0.4794921875,0.52099609375,0.47955322265625,0.51837158203125,0.0390625,0.03125,0.0234375,0.001953125,0.0,0.0
2026-09-02T16:08:40.317144,0.47943115234375,0.52099609375,0.47955322265625,0.51837158203125,0.0,0.0390625,0.0234375,0.0,0.0,-0.001953125
2026-09-02T16:08:40.418102,0.4794921875,0.52093505859375,0.4796142578125,0.51837158203125,0.0390625,-0.046875,-0.0234375,-0.001953125,0.0,0.0
2026-09-02T16:08:40.517311,0.47943115234375,0.52093505859375,0.47955322265625,0.5184326171875,0.046875,-0.0078125,-0.0234375,0.00390625,0.001953125,0.0
2026-09-02T16:08:40.616876,0.47943115234375,0.52093505859375,0.47955322265625,0.51849365234375,0.0390625,0.03125,-0.0234375,0.0,0.0,0.0
2026-09-02T16:08:40.717543,0.47943115234375,0.52093505859375,0.47955322265625,0.5184326171875,0.0390625,-0.0078125,0.0234375,0.001953125,0.001953125,-0.001953125
2026-09-02T16:08:40.816978,0.47943115234375,0.5208740234375,0.4796142578125,0.5184326171875,0.03125,0.03125,-0.0234375,0.0,0.0,-0.001953125
2026-09-02T16:08:40.918974,0.47943115234375,0.52081298828125,0.47967529296875,0.5184326171875,-0.0078125,-0.0078125,-0.0234375,0.0,0.0,0.001953125
2026-09-02T16:08:41.134388,0.47943115234375,0.52081298828125,0.47967529296875,0.5184326171875,0.0,-0.0078125,-0.015625,0.001953125,0.0,-0.001953125
2026-09-02T16:08:41.233984,0.4794921875,0.5208740234375,0.47967529296875,0.51837158203125,0.0,-0.0078125,0.0234375,0.0,0.0,-0.001953125
2026-09-02T16:08:41.347960,0.4794921875,0.5208740234375,0.47967529296875,0.51837158203125,0.0,0.0,0.015625,0.0,0.0,0.0
2026-09-02T16:08:41.432940,0.4716796875,0.52081298828125,0.47967529296875,0.51837158203125,0.0,-0.0078125,-0.015625,0.0,0.001953125,0.001953125
2026-09-02T16:08:41.532190,0.4794921875,0.5208740234375,0.47967529296875,0.51837158203125,0.0,-0.0078125,0.0234375,0.001953125,0.0,0.001953125
2026-09-02T16:08:41.632256,0.4794921875,-1.4791259765625,0.47967529296875,0.51837158203125,0.0,-0.0078125,0.03125,-0.001953125,0.0,-0.00390625
2026-09-02T16:08:41.853678,0.47943115234375,0.52093505859375,0.47967529296875,0.518310546875,0.0,-0.0078125,-0.015625,0.0,0.0,0.0
2026-09-02T16:08:41.955940,0.47943115234375,0.52093505859375,0.47967529296875,0.51837158203125,0.0,-0.0078125,0.0234375,0.0,0.0,0.0
2026-09-02T16:08:42.056868,0.47943115234375,0.52093505859375,0.47967529296875,0.518310546875,0.0,-0.0859375,0.0234375,0.0,0.0,0.0
2026-09-02T16:08:42.164601,0.47943115234375,0.52093505859375,0.47967529296875,0.518310546875,0.0,0.03125,0.0234375,0.0,0.0,0.0
2026-09-02T16:08:42.264050,0.47943115234375,0.52093505859375,0.47967529296875,0.518310546875,0.0,-0.046875,-0.015625,0.0,0.0,0.0
2026-09-02T16:08:42.375915,0.47943115234375,0.52093505859375,0.47967529296875,0.518310546875,0.0,-0.0078125,-0.015625,0.0,0.0,0.0
2026-09-02T16:08:42.461274,0.47943115234375,0.52093505859375,0.47967529296875,0.518310546875,0.0,0.03125,-0.015625,0.0,0.0,0.0
2026-09-02T16:08:42.561636,0.47943115234375,0.52093505859375,0.47967529296875,0.518310546875,0.0,-0.0078125,-0.015625,0.0,0.0,0.0
2026-09-02T16:08:42.660475,0.4794921875,0.52093505859375,0.47967529296875,0.518310546875,0.0,-0.0078125,0.0234375,0.0,0.0,0.0
2026-09-02T16:08:42.761541,0.4794921875,0.5208740234375,0.47967529296875,0.518310546875,0.0,0.03125,0.0234375,0.0,0.0,0.0
2026-09-02T16:08:42.861562,0.4794921875,0.5208740234375,0.47967529296875,0.518310546875,0.0,-0.0078125,-0.015625,0.0,0.0,0.0
2026-09-02T16:08:42.975389,0.4794921875,0.5208740234375,0.479736328125,0.518310546875,0.0,0.0,-0.015625,0.0,0.0,0.0
2026-09-02T16:08:43.063929,0.4794921875,0.5208740234375,0.479736328125,0.518310546875,0.0,-0.0078125,0.0234375,0.0,0.0,0.0
2026-09-02T16:08:43.158723,0.4794921875,0.5208740234375,0.479736328125,0.518310546875,0.0,0.0,-0.0234375,0.0,0.0,0.0
2026-09-02T16:08:43.260476,0.4794921875,0.5208740234375,0.479736328125,0.518310546875,0.0,0.0,0.0234375,0.0,0.0,0.0
2026-09-02T16:08:43.362573,0.4794921875,0.5208740234375,0.479736328125,0.518310546875,0.0,0.0,-0.015625,0.0,0.0,0.0
2026-09-02T16:08:43.461958,0.4794921875,0.5208740234375,0.479736328125,0.518310546875,0.0,0.0390625,0.0234375,0.0,0.0,0.0
2026-09-02T16:08:43.579433,0.47943115234375,0.5208740234375,0.479736328125,0.518310546875,0.0,-0.0078125,0.0234375,0.0,0.0,0.0
2026-09-02T16:08:43.662181,0.47943115234375,0.5208740234375,0.479736328125,0.518310546875,0.0,-0.046875,0.0234375,0.0,0.0,0.0
2026-09-02T16:08:43.770691,0.47943115234375,0.5208740234375,0.479736328125,0.51837158203125,-0.0390625,-0.0078125,-0.0234375,0.0,0.0,0.0
2026-09-02T16:08:43.859416,0.47943115234375,0.5208740234375,0.479736328125,0.51837158203125,0.0,-0.0078125,-0.015625,0.0,0.0,0.0
2026-09-02T16:08:43.960699,0.47943115234375,0.5208740234375,0.479736328125,0.51837158203125,0.0,0.0,0.0234375,0.0,0.0,0.0
2026-09-02T16:08:44.061440,0.47943115234375,0.5208740234375,0.479736328125,0.51837158203125,0.0,0.0390625,0.0234375,0.0,0.0,0.0
2026-09-02T16:08:44.160722,0.47943115234375,0.5208740234375,0.479736328125,0.518310546875,0.0,0.03125,0.0234375,0.0,0.0,0.0
2026-09-02T16:08:44.252762,0.47943115234375,0.5208740234375,0.479736328125,0.51837158203125,0.0,-0.0078125,-0.0234375,0.0,0.0,0.0
2026-09-02T16:08:44.354396,0.47943115234375,0.5208740234375,0.479736328125,0.51837158203125,0.0,-0.0078125,-0.0234375,0.0,0.0,0.0
2026-09-02T16:08:44.454094,0.47943115234375,-1.4791259765625,0.479736328125,0.51837158203125,0.0390625,0.03125,0.0234375,0.0,0.0,0.0
2026-09-02T16:08:44.554271,0.47943115234375,0.52081298828125,0.479736328125,0.518310546875,-0.0078125,-0.046875,0.0234375,0.0,0.0,0.0
2026-09-02T16:08:44.654466,0.4794921875,0.52081298828125,0.479736328125,0.518310546875,0.0,0.0,-0.015625,0.0,0.0,0.0
2026-09-02T16:08:44.754118,0.4794921875,0.5208740234375,0.479736328125,0.518310546875,0.0,0.0,-0.0546875,0.0,0.0,0.0
2026-09-02T16:08:44.854101,0.4794921875,0.5208740234375,0.479736328125,0.518310546875,0.0,0.0,-0.0078125,0.0,0.0,0.0
2026-09-02T16:08:44.955459,0.4794921875,0.52093505859375,0.47967529296875,0.51824951171875,0.0,0.0078125,0.0390625,0.0,0.0,0.0
2026-09-02T16:08:45.055184,0.47955322265625,0.52093505859375,0.47967529296875,0.51824951171875,-0.0390625,0.0078125,0.03125,0.0,0.0,0.0
2026-09-02T16:08:45.155094,0.47955322265625,0.52093505859375,0.47967529296875,0.51824951171875,0.0,0.0,-0.046875,0.0,0.0,0.0
2026-09-02T16:08:45.255276,0.47955322265625,0.52099609375,0.4796142578125,0.51824951171875,0.0,0.0,0.03125,0.0,0.0,0.0
2026-09-02T16:08:45.355385,0.47955322265625,0.52099609375,0.4796142578125,0.51824951171875,0.0,0.0390625,0.0234375,0.0,0.0,0.0
2026-09-02T16:08:45.455228,0.47955322265625,0.52099609375,0.4796142578125,0.51824951171875,0.0,-0.046875,0.5234375,0.0,0.0,0.0
2026-09-02T16:08:45.554999,0.47955322265625,0.52099609375,0.4796142578125,0.51824951171875,0.0,0.0,-0.015625,0.0,0.0,0.0
2026-09-02T16:08:45.655375,0.47955322265625,0.52093505859375,0.47967529296875,0.51824951171875,0.0,0.0,-0.015625,0.0,0.0,0.0
2026-09-02T16:08:45.755065,0.4794921875,0.52093505859375,0.47967529296875,0.51824951171875,0.0,0.0390625,-0.015625,0.0,0.0,0.0
2026-09-02T16:08:45.855000,0.4794921875,0.52093505859375,0.47967529296875,0.51824951171875,0.0,0.0,0.0234375,0.0,0.0,0.0
2026-09-02T16:08:45.954921,0.47955322265625,0.52093505859375,0.47967529296875,0.51824951171875,-0.0078125,-0.0078125,-0.0546875,0.0,0.0,0.0
2026-09-02T16:08:46.054635,0.47955322265625,0.5208740234375,0.479736328125,0.51824951171875,-0.0078125,-0.0078125,-0.015625,0.0,0.0,0.0
2026-09-02T16:08:46.154662,0.47955322265625,0.5208740234375,0.479736328125,0.51824951171875,0.0,0.03125,-0.015625,0.0,0.0,0.0
2026-09-02T16:08:46.254878,0.47955322265625,0.52093505859375,0.47967529296875,0.51824951171875,0.0390625,0.03125,0.03125,0.0,0.0,0.0
2026-09-02T16:08:46.355076,0.4796142578125,0.5208740234375,0.479736328125,0.5181884765625,-0.0078125,-0.0078125,-0.015625,0.0,0.0,0.0
2026-09-02T16:08:46.455273,0.4796142578125,0.5208740234375,0.479736328125,0.5181884765625,-0.0078125,-0.0078125,-0.015625,0.0,0.0,0.0
2026-09-02T16:08:46.559766,0.4796142578125,0.5208740234375,0.479736328125,0.5181884765625,0.0,0.03125,0.0234375,0.0,0.0,0.0
2026-09-02T16:08:46.653444,0.4796142578125,0.5208740234375,0.479736328125,0.5181884765625,0.0390625,-0.046875,0.0234375,0.0,0.0,0.0
2026-09-02T16:08:46.760403,0.4796142578125,0.5208740234375,0.479736328125,0.5181884765625,-0.0078125,0.0,0.0234375,0.0,0.0,0.0
2026-09-02T16:08:46.853905,0.4796142578125,0.5208740234375,0.479736328125,0.5181884765625,-0.0078125,0.0,-0.0546875,0.0,0.0,0.001953125
2026-09-02T16:08:46.959774,0.4796142578125,0.5208740234375,0.479736328125,0.5181884765625,-0.0078125,0.03125,-0.015625,-0.001953125,0.0,-0.00390625
2026-09-02T16:08:47.059495,0.4796142578125,0.52081298828125,0.47979736328125,0.5181884765625,-0.0078125,-0.0078125,0.0234375,0.001953125,0.001953125,0.0
2026-09-02T16:08:47.153641,0.4796142578125,0.5208740234375,0.479736328125,0.5181884765625,0.0,-0.0390625,-0.046875,0.001953125,-0.00390625,0.001953125
2026-09-02T16:08:47.371854,0.4796142578125,0.5208740234375,0.47967529296875,0.5181884765625,0.0,-0.0390625,-0.0078125,0.001953125,0.0,-0.00390625
2026-09-02T16:08:47.471788,0.4796142578125,0.52093505859375,0.4796142578125,0.5181884765625,0.0,-0.046875,-0.0078125,0.00390625,0.001953125,0.001953125
2026-09-02T16:08:47.571082,0.47967529296875,0.52105712890625,0.47955322265625,0.51812744140625,0.0,-0.0078125,0.0390625,0.0,0.001953125,0.0
2026-09-02T16:08:47.670936,0.4796142578125,0.52105712890625,0.47955322265625,0.5181884765625,0.0078125,0.0,-0.0078125,0.001953125,0.001953125,0.001953125
2026-09-02T16:08:47.770651,0.4796142578125,0.52105712890625,0.47955322265625,0.5181884765625,0.0078125,0.0,-0.015625,0.0,0.0,0.0
2026-09-02T16:08:47.870897,0.47955322265625,0.52105712890625,0.4794921875,0.51824951171875,0.0,-0.0390625,-0.015625,0.0,0.0,0.0
2026-09-02T16:08:47.971006,0.47955322265625,0.52105712890625,0.47955322265625,0.51824951171875,0.0,0.0390625,0.0234375,0.0,0.0,0.0
2026-09-02T16:08:48.070831,0.47955322265625,0.52099609375,0.47955322265625,0.518310546875,0.0,0.0,-0.0234375,0.0,0.0,0.0
2026-09-02T16:08:48.170674,0.4794921875,0.52093505859375,0.4796142578125,0.518310546875,0.0,0.0,-0.0234375,0.0,0.0,0.0
2026-09-02T16:08:48.297657,0.4794921875,0.52093505859375,0.4796142578125,0.51837158203125,0.0,-0.0078125,-0.015625,0.0,0.0,0.0
2026-09-02T16:08:48.390580,0.4794921875,0.52093505859375,0.47967529296875,0.51837158203125,0.0,-0.046875,0.0234375,0.0,0.0,0.0
2026-09-02T16:08:48.490377,0.4794921875,0.52093505859375,0.47967529296875,0.51837158203125,-0.0390625,-0.078125,0.0234375,0.0,0.0,0.0
2026-09-02T16:08:48.590988,0.4794921875,0.52093505859375,0.47967529296875,0.51837158203125,0.0,-0.0078125,-0.015625,0.0,0.0,0.0
2026-09-02T16:08:48.690618,0.4794921875,0.5208740234375,0.47967529296875,0.518310546875,-0.0078125,-0.0078125,-0.0078125,0.0,0.0,0.0
2026-09-02T16:08:48.777466,0.47955322265625,0.5208740234375,0.47967529296875,0.518310546875,-0.0078125,-0.0078125,-0.0078125,0.0,0.0,0.0
2026-09-02T16:08:48.876554,0.47955322265625,0.5208740234375,0.47967529296875,0.51824951171875,-0.0078125,-0.0078125,0.0234375,-0.00390625,0.0,0.001953125
2026-09-02T16:08:48.976188,0.4794921875,0.520751953125,0.4798583984375,0.518310546875,0.0390625,-0.0078125,0.0078125,-0.0078125,0.0,0.001953125
2026-09-02T16:08:49.077411,0.4793701171875,0.52056884765625,0.48004150390625,0.5184326171875,0.03125,-0.0078125,-0.0078125,-0.001953125,0.001953125,0.001953125
2026-09-02T16:08:49.194108,0.479248046875,0.5203857421875,0.480224609375,0.5185546875,-0.015625,0.0,-0.0078125,-0.00390625,0.0,0.0
2026-09-02T16:08:49.291120,0.4791259765625,0.52020263671875,0.48046875,0.5186767578125,0.05859375,0.0,0.03125,0.001953125,0.0,0.0
2026-09-02T16:08:49.391594,0.47918701171875,0.5201416015625,0.48052978515625,0.51861572265625,0.671875,0.22265625,0.03125,0.005859375,0.00390625,-0.005859375
2026-09-02T16:08:49.496249,0.47955322265625,0.52008056640625,0.480712890625,0.51812744140625,0.79296875,0.15234375,-0.11328125,0.013671875,0.0,0.001953125
2026-09-02T16:08:49.596106,0.48046875,0.51995849609375,0.48089599609375,0.51715087890625,1.03125,-0.19140625,-0.4375,0.0234375,0.01171875,0.005859375
2026-09-02T16:08:49.693636,0.48114013671875,0.52020263671875,0.4814453125,0.515869140625,0.26171875,-0.1640625,-0.53515625,-0.005859375,0.021484375,0.0
2026-09-02T16:08:49.795490,0.48077392578125,0.51995849609375,0.48272705078125,0.51519775390625,0.62109375,0.14453125,-0.12109375,-0.025390625,0.01953125,-0.00390625
2026-09-02T16:08:49.893790,0.48040771484375,0.51953125,0.48388671875,0.51495361328125,0.59765625,0.02734375,0.0625,-0.009765625,0.01171875,0.001953125
2026-09-02T16:08:49.993575,0.4803466796875,0.51947021484375,0.48468017578125,0.5142822265625,0.375,-0.046875,0.0703125,-0.00390625,0.017578125,0.0
2026-09-02T16:08:50.094835,0.4803466796875,0.519775390625,0.4854736328125,0.51324462890625,0.4296875,-0.0859375,0.15234375,0.00390625,0.01953125,-0.001953125
2026-09-02T16:08:50.194384,0.48065185546875,0.52020263671875,0.48577880859375,0.51220703125,-0.12890625,0.0078125,-0.20703125,0.01171875,0.013671875,-0.00390625
2026-09-02T16:08:50.292927,0.48565673828125,0.51434326171875,0.49212646484375,0.50732421875,-0.12890625,0.0078125,-0.12109375,0.001953125,0.00390625,-0.00390625
2026-09-02T16:08:50.394358,0.48822021484375,0.5115966796875,0.49517822265625,0.50469970703125,-0.11328125,-0.03125,0.0234375,-0.005859375,0.001953125,-0.00390625
2026-09-02T16:08:50.496207,0.48931884765625,0.51043701171875,0.49652099609375,0.50347900390625,-0.06640625,0.0078125,0.09375,-0.0078125,0.001953125,-0.005859375
2026-09-02T16:08:50.613692,0.48968505859375,0.50946044921875,0.4969482421875,0.50372314453125,-0.02734375,-0.0703125,0.15234375,-0.013671875,-0.0078125,-0.0078125
2026-09-02T16:08:50.710649,0.4901123046875,0.509033203125,0.4969482421875,0.503662109375,0.09375,-0.0546875,0.02734375,0.009765625,-0.0078125,-0.001953125
2026-09-02T16:08:50.793892,0.49041748046875,0.50885009765625,0.4969482421875,0.50360107421875,0.0625,-0.0703125,0.08203125,0.01953125,-0.0078125,0.00390625
2026-09-02T16:08:50.883062,0.49139404296875,0.50836181640625,0.496826171875,0.50323486328125,-0.06640625,0.10546875,0.03515625,0.025390625,-0.013671875,0.005859375
2026-09-02T16:08:50.983752,0.49267578125,0.507568359375,0.49639892578125,0.50323486328125,-0.02734375,0.19921875,-0.171875,0.021484375,-0.02734375,0.005859375
2026-09-02T16:08:51.083163,0.486083984375,0.50640869140625,0.49591064453125,0.50372314453125,-0.08984375,0.12109375,-0.22265625,0.01171875,-0.28125,0.00390625
2026-09-02T16:08:51.183417,0.4949951171875,0.5054931640625,0.4952392578125,0.50421142578125,-0.140625,-0.0625,0.66796875,0.0078125,-0.033203125,0.001953125
2026-09-02T16:08:51.283519,0.49615478515625,0.50457763671875,0.49420166015625,0.5050048828125,-0.125,-0.125,0.24609375,0.005859375,-0.04296875,0.0
2026-09-02T16:08:51.384106,0.49749755859375,0.5032958984375,0.49261474609375,0.50653076171875,-0.078125,-0.0234375,0.13671875,0.01171875,-0.05859375,0.0
2026-09-02T16:08:51.484065,0.49896240234375,0.501708984375,0.4908447265625,0.50836181640625,-0.19921875,0.16796875,-0.125,0.017578125,-0.06640625,0.005859375
2026-09-02T16:08:51.703281,0.49981689453125,0.4962158203125,0.4879150390625,0.51568603515625,-0.3359375,0.85546875,-0.59765625,-0.05859375,-0.06640625,0.041015625
2026-09-02T16:08:51.803239,0.49981689453125,0.49346923828125,0.4864501953125,-1.48028564453125,-0.17578125,0.01171875,0.0,-0.103515625,-0.0859375,0.0390625
2026-09-02T16:08:51.902639,0.4991455078125,0.49005126953125,0.4852294921875,0.524658203125,0.0390625,-0.44140625,0.24609375,-0.111328125,-0.09375,0.02734375
2026-09-02T16:08:52.003745,0.498779296875,0.48565673828125,0.48486328125,0.5294189453125,0.109375,-0.46875,0.47265625,-0.087890625,-0.095703125,0.01171875
2026-09-02T16:08:52.103494,0.50054931640625,0.48193359375,0.48309326171875,0.53271484375,0.0,-0.25390625,1.06640625,-0.02734375,-0.111328125,0.00390625
2026-09-02T16:08:52.205889,0.50390625,0.47869873046875,0.4793701171875,0.535888671875,-0.0546875,-0.1171875,1.2109375,0.017578125,-0.142578125,-0.005859375
2026-09-02T16:13:01.453539,0.50836181640625,0.476318359375,0.47381591796875,0.5386962890625,0.29296875,-0.4296875,0.4453125,0.07421875,-0.154296875,-0.021484375
2026-09-02T16:13:01.525997,0.5130615234375,0.47430419921875,0.46759033203125,0.54144287109375,0.18359375,-0.15234375,0.0,0.06640625,-0.158203125,-0.025390625
2026-09-02T16:13:01.629566,0.51531982421875,0.47308349609375,0.46435546875,0.54315185546875,0.23046875,-0.0703125,-0.03125,0.05078125,-0.171875,-0.03125
2026-09-02T16:13:01.728060,0.5194091796875,0.4700927734375,0.4578857421875,0.54736328125,0.16796875,-0.08984375,0.1015625,0.041015625,-0.181640625,-0.033203125
2026-09-02T16:13:01.823596,0.52569580078125,0.4649658203125,0.447998046875,0.5538330078125,0.109375,-0.0390625,0.61328125,0.05859375,-0.189453125,-0.029296875
2026-09-02T16:13:01.923951,0.52862548828125,0.4552001953125,0.43853759765625,0.56048583984375,-0.29296875,0.23828125,0.37109375,0.08984375,-0.205078125,-0.017578125
2026-09-02T16:13:02.023563,0.53363037109375,0.44964599609375,0.4404296875,0.56488037109375,-0.7734375,0.90234375,-0.1328125,0.095703125,-0.208984375,0.01953125
2026-09-02T16:13:02.229091,0.5390625,0.44488525390625,0.432861328125,0.5693359375,0.18359375,-0.75,0.21484375,0.111328125,-0.234375,0.0390625
2026-09-02T16:13:02.326892,0.547119140625,0.437255859375,0.4200439453125,0.57708740234375,0.44921875,-0.89453125,-0.58203125,0.05859375,-0.248046875,0.00390625
2026-09-02T16:13:02.427528,0.55206298828125,0.43060302734375,0.412841796875,0.58251953125,0.69140625,-0.49609375,-1.40625,-0.046875,-0.234375,-0.01171875
2026-09-02T16:13:02.527604,0.55426025390625,0.4227294921875,0.40765380859375,0.58984375,0.63671875,-0.4140625,-1.421875,-0.154296875,-0.224609375,-0.017578125
2026-09-02T16:13:02.628039,0.55352783203125,0.41339111328125,0.40399169921875,0.599609375,0.20703125,0.0703125,-0.56640625,-0.14453125,-0.240234375,-0.03515625
2026-09-02T16:13:02.727060,0.5538330078125,0.40447998046875,0.39849853515625,0.6090087890625,-0.2890625,1.09765625,0.453125,-0.103515625,-0.255859375,-0.052734375
2026-09-02T16:13:02.849087,0.5552978515625,0.396240234375,0.391845703125,0.6173095703125,-0.265625,0.203125,1.31640625,0.01171875,-0.2421875,-0.0234375
2026-09-02T16:13:02.938842,0.56243896484375,0.38616943359375,0.3802490234375,0.62445068359375,-0.19140625,-0.296875,0.87890625,0.0625,-0.255859375,-0.021484375
2026-09-02T16:13:03.051380,0.56585693359375,0.38323974609375,0.3756103515625,0.6259765625,-0.10546875,-0.34375,-0.29296875,0.03125,-0.265625,-0.017578125
2026-09-02T16:13:03.147037,0.574951171875,0.3724365234375,0.36279296875,0.6317138671875,-0.08203125,-0.11328125,-0.1015625,0.00390625,-0.251953125,0.0078125
2026-09-02T16:13:03.226869,0.580322265625,0.3646240234375,0.35589599609375,0.63531494140625,0.015625,0.01171875,0.05078125,0.017578125,-0.240234375,0.013671875
2026-09-02T16:13:03.331809,0.58306884765625,0.36083984375,0.3525390625,0.6368408203125,0.0078125,0.0859375,0.3203125,0.04296875,-0.25,0.0078125
2026-09-02T16:13:03.426075,0.58892822265625,0.35369873046875,0.34478759765625,0.6396484375,0.046875,0.1953125,0.47265625,0.0546875,-0.2578125,-0.0078125
2026-09-02T16:13:03.531403,0.594970703125,0.34765625,0.3350830078125,0.64251708984375,0.078125,0.265625,0.51953125,0.0859375,-0.25390625,-0.07421875
2026-09-02T16:13:03.629955,0.5997314453125,0.34259033203125,0.32415771484375,0.64642333984375,-0.12109375,0.3828125,-0.484375,0.033203125,-0.255859375,-0.05078125
2026-09-02T16:13:03.731672,0.60400390625,0.3367919921875,0.3138427734375,0.650634765625,-0.1484375,0.1484375,-0.765625,-0.02734375,-0.2578125,-0.001953125
2026-09-02T16:13:03.831750,0.6085205078125,0.33050537109375,0.30419921875,0.65411376953125,0.00390625,-0.546875,-0.1875,-0.078125,-0.275390625,0.033203125
2026-09-02T16:13:03.933415,0.61358642578125,0.32244873046875,0.2955322265625,0.65740966796875,0.2890625,-0.4375,0.1953125,-0.095703125,-0.306640625,0.072265625
2026-09-02T16:13:04.031479,0.6181640625,0.31109619140625,0.28826904296875,0.66180419921875,0.515625,-0.296875,0.9921875,-0.04296875,-0.28515625,0.03515625
2026-09-02T16:13:04.133329,0.621826171875,0.2994384765625,0.28143310546875,0.66668701171875,1.046875,0.1484375,1.1640625,0.013671875,-0.255859375,-0.04296875
2026-09-02T16:13:04.234169,0.62518310546875,0.29150390625,0.2724609375,0.6707763671875,0.7734375,0.50390625,1.21484375,0.072265625,-0.2734375,-0.068359375
2026-09-02T16:13:04.659296,0.62518310546875,0.29150390625,0.2724609375,0.6707763671875,0.7734375,0.50390625,1.21484375,0.072265625,-0.2734375,-0.068359375
2026-09-02T16:13:04.759625,0.62518310546875,0.29150390625,0.2724609375,0.6707763671875,0.7734375,0.50390625,1.21484375,0.072265625,-0.2734375,-0.068359375
2026-09-02T16:13:04.859574,0.62518310546875,0.29150390625,0.2724609375,0.6707763671875,0.7734375,0.50390625,1.21484375,0.072265625,-0.2734375,-0.068359375
2026-09-02T16:13:04.959702,0.62518310546875,0.29150390625,0.2724609375,0.6707763671875,0.7734375,0.50390625,1.21484375,0.072265625,-0.2734375,-0.068359375
2026-09-02T16:13:05.060012,0.62518310546875,0.29150390625,0.2724609375,0.6707763671875,0.7734375,0.50390625,1.21484375,0.072265625,-0.2734375,-0.068359375
2026-09-02T16:13:05.160255,0.62518310546875,0.29150390625,0.2724609375,0.6707763671875,0.7734375,0.50390625,1.21484375,0.072265625,-0.2734375,-0.068359375
2026-09-02T16:13:05.260420,0.62518310546875,0.29150390625,0.2724609375,0.6707763671875,0.7734375,0.50390625,1.21484375,0.072265625,-0.2734375,-0.068359375
2026-09-02T16:13:05.360703,0.62518310546875,0.29150390625,0.2724609375,0.6707763671875,0.7734375,0.50390625,1.21484375,0.072265625,-0.2734375,-0.068359375
2026-09-02T16:13:05.460531,0.62518310546875,0.29150390625,0.2724609375,0.6707763671875,0.7734375,0.50390625,1.21484375,0.072265625,-0.2734375,-0.068359375
2026-09-02T16:13:05.560711,0.62518310546875,0.29150390625,0.2724609375,0.6707763671875,0.7734375,0.50390625,1.21484375,0.072265625,-0.2734375,-0.068359375
2026-09-02T16:13:05.661082,0.62518310546875,0.29150390625,0.2724609375,0.6707763671875,0.7734375,0.50390625,1.21484375,0.072265625,-0.2734375,-0.068359375
2026-09-02T16:13:05.761021,0.62518310546875,0.29150390625,0.2724609375,0.6707763671875,0.7734375,0.50390625,1.21484375,0.072265625,-0.2734375,-0.068359375
2026-09-02T16:13:05.861386,0.62518310546875,0.29150390625,0.2724609375,0.6707763671875,0.7734375,0.50390625,1.21484375,0.072265625,-0.2734375,-0.068359375
2026-09-02T16:13:05.961229,0.62518310546875,0.29150390625,0.2724609375,0.6707763671875,0.7734375,0.50390625,1.21484375,0.072265625,-0.2734375,-0.068359375
2026-09-02T16:13:06.061482,0.62518310546875,0.29150390625,0.2724609375,0.6707763671875,0.7734375,0.50390625,1.21484375,0.072265625,-0.2734375,-0.068359375
2026-09-02T16:13:06.161576,0.62518310546875,0.29150390625,0.2724609375,0.6707763671875,0.7734375,0.50390625,1.21484375,0.072265625,-0.2734375,-0.068359375
2026-09-02T16:13:06.264299,0.62518310546875,0.29150390625,0.2724609375,0.6707763671875,0.7734375,0.50390625,1.21484375,0.072265625,-0.2734375,-0.068359375
2026-09-02T16:13:06.362774,0.62518310546875,0.29150390625,0.2724609375,0.6707763671875,0.7734375,0.50390625,1.21484375,0.072265625,-0.2734375,-0.068359375
2026-09-02T16:13:06.463939,0.62518310546875,0.29150390625,0.2724609375,0.6707763671875,0.7734375,0.50390625,1.21484375,0.072265625,-0.2734375,-0.068359375
2026-09-02T16:13:06.561544,0.62518310546875,0.29150390625,0.2724609375,0.6707763671875,0.7734375,0.50390625,1.21484375,0.072265625,-0.2734375,-0.068359375
2026-09-02T16:13:06.662223,0.62518310546875,0.29150390625,0.2724609375,0.6707763671875,0.7734375,0.50390625,1.21484375,0.072265625,-0.2734375,-0.068359375
2026-09-02T16:13:06.762884,0.62518310546875,0.29150390625,0.2724609375,0.6707763671875,0.7734375,0.50390625,1.21484375,0.072265625,-0.2734375,-0.068359375
2026-09-02T16:13:06.862372,0.62518310546875,0.29150390625,0.2724609375,0.6707763671875,0.7734375,0.50390625,1.21484375,0.072265625,-0.2734375,-0.068359375
2026-09-02T16:13:06.962469,0.62518310546875,0.29150390625,0.2724609375,0.6707763671875,0.7734375,0.50390625,1.21484375,0.072265625,-0.2734375,-0.068359375
2026-09-02T16:13:07.062346,0.62518310546875,0.29150390625,0.2724609375,0.6707763671875,0.7734375,0.50390625,1.21484375,0.072265625,-0.2734375,-0.068359375
2026-09-02T16:13:07.162916,0.62518310546875,0.29150390625,0.2724609375,0.6707763671875,0.7734375,0.50390625,1.21484375,0.072265625,-0.2734375,-0.068359375
2026-09-02T16:13:07.263052,0.62518310546875,0.29150390625,0.2724609375,0.6707763671875,0.7734375,0.50390625,1.21484375,0.072265625,-0.2734375,-0.068359375
2026-09-02T16:13:07.362990,0.62518310546875,0.29150390625,0.2724609375,0.6707763671875,0.7734375,0.50390625,1.21484375,0.072265625,-0.2734375,-0.068359375
2026-09-02T16:13:07.463222,0.62518310546875,0.29150390625,0.2724609375,0.6707763671875,0.7734375,0.50390625,1.21484375,0.072265625,-0.2734375,-0.068359375
2026-09-02T16:13:07.563257,0.62518310546875,0.29150390625,0.2724609375,0.6707763671875,0.7734375,0.50390625,1.21484375,0.072265625,-0.2734375,-0.068359375
2026-09-02T16:13:07.663594,0.62518310546875,0.29150390625,0.2724609375,0.6707763671875,0.7734375,0.50390625,1.21484375,0.072265625,-0.2734375,-0.068359375
2026-09-02T16:13:07.763395,0.62518310546875,0.29150390625,0.2724609375,0.6707763671875,0.7734375,0.50390625,1.21484375,0.072265625,-0.2734375,-0.068359375
2026-09-02T16:13:07.863550,0.62518310546875,0.29150390625,0.2724609375,0.6707763671875,0.7734375,0.50390625,1.21484375,0.072265625,-0.2734375,-0.068359375
2026-09-02T16:13:07.963628,0.62518310546875,0.29150390625,0.2724609375,0.6707763671875,0.7734375,0.50390625,1.21484375,0.072265625,-0.2734375,-0.068359375
2026-09-02T16:13:08.063737,0.62518310546875,0.29150390625,0.2724609375,0.6707763671875,0.7734375,0.50390625,1.21484375,0.072265625,-0.2734375,-0.068359375
2026-09-02T16:13:08.164024,0.62518310546875,0.29150390625,0.2724609375,0.6707763671875,0.7734375,0.50390625,1.21484375,0.072265625,-0.2734375,-0.068359375
2026-09-02T16:13:08.264102,0.62518310546875,0.29150390625,0.2724609375,0.6707763671875,0.7734375,0.50390625,1.21484375,0.072265625,-0.2734375,-0.068359375
2026-09-02T16:13:08.364055,0.62518310546875,0.29150390625,0.2724609375,0.6707763671875,0.7734375,0.50390625,1.21484375,0.072265625,-0.2734375,-0.068359375
2026-09-02T16:13:08.464121,0.62518310546875,0.29150390625,0.2724609375,0.6707763671875,0.7734375,0.50390625,1.21484375,0.072265625,-0.2734375,-0.068359375
2026-09-02T16:13:08.564324,0.62518310546875,0.29150390625,0.2724609375,0.6707763671875,0.7734375,0.50390625,1.21484375,0.072265625,-0.2734375,-0.068359375
2026-09-02T16:13:08.664433,0.62518310546875,0.29150390625,0.2724609375,0.6707763671875,0.7734375,0.50390625,1.21484375,0.072265625,-0.2734375,-0.068359375
2026-09-02T16:13:08.764494,0.62518310546875,0.29150390625,0.2724609375,0.6707763671875,0.7734375,0.50390625,1.21484375,0.072265625,-0.2734375,-0.068359375
2026-09-02T16:13:08.864614,0.62518310546875,0.29150390625,0.2724609375,0.6707763671875,0.7734375,0.50390625,1.21484375,0.072265625,-0.2734375,-0.068359375
2026-09-02T16:13:08.965358,0.62518310546875,0.29150390625,0.2724609375,0.6707763671875,0.7734375,0.50390625,1.21484375,0.072265625,-0.2734375,-0.068359375
2026-09-02T16:13:09.067322,0.62518310546875,0.29150390625,0.2724609375,0.6707763671875,0.7734375,0.50390625,1.21484375,0.072265625,-0.2734375,-0.068359375
2026-09-02T16:13:09.166098,0.62518310546875,0.29150390625,0.2724609375,0.6707763671875,0.7734375,0.50390625,1.21484375,0.072265625,-0.2734375,-0.068359375
2026-09-02T16:13:09.266506,0.62518310546875,0.29150390625,0.2724609375,0.6707763671875,0.7734375,0.50390625,1.21484375,0.072265625,-0.2734375,-0.068359375
2026-09-02T16:13:09.366372,0.62518310546875,0.29150390625,0.2724609375,0.6707763671875,0.7734375,0.50390625,1.21484375,0.072265625,-0.2734375,-0.068359375
2026-09-02T16:13:09.465528,0.62518310546875,0.29150390625,0.2724609375,0.6707763671875,0.7734375,0.50390625,1.21484375,0.072265625,-0.2734375,-0.068359375
2026-09-02T16:13:09.565584,0.62518310546875,0.29150390625,0.2724609375,0.6707763671875,0.7734375,0.50390625,1.21484375,0.072265625,-0.2734375,-0.068359375
2026-09-02T16:13:09.665213,0.62518310546875,0.29150390625,0.2724609375,0.6707763671875,0.7734375,0.50390625,1.21484375,0.072265625,-0.2734375,-0.068359375
2026-09-02T16:13:09.765873,0.62518310546875,0.29150390625,0.2724609375,0.6707763671875,0.7734375,0.50390625,1.21484375,0.072265625,-0.2734375,-0.068359375
2026-09-02T16:13:09.866117,0.62518310546875,0.29150390625,0.2724609375,0.6707763671875,0.7734375,0.50390625,1.21484375,0.072265625,-0.2734375,-0.068359375
2026-09-02T16:13:09.966257,0.62518310546875,0.29150390625,0.2724609375,0.6707763671875,0.7734375,0.50390625,1.21484375,0.072265625,-0.2734375,-0.068359375
2026-09-02T16:13:10.067024,0.62518310546875,0.29150390625,0.2724609375,0.6707763671875,0.7734375,0.50390625,1.21484375,0.072265625,-0.2734375,-0.068359375
2026-09-02T16:13:10.167006,0.62518310546875,0.29150390625,0.2724609375,0.6707763671875,0.7734375,0.50390625,1.21484375,0.072265625,-0.2734375,-0.068359375
2026-09-02T16:13:10.266486,0.62518310546875,0.29150390625,0.2724609375,0.6707763671875,0.7734375,0.50390625,1.21484375,0.072265625,-0.2734375,-0.068359375
2026-09-02T16:13:10.366585,0.62518310546875,0.29150390625,0.2724609375,0.6707763671875,0.7734375,0.50390625,1.21484375,0.072265625,-0.2734375,-0.068359375
2026-09-02T16:13:10.466779,0.62518310546875,0.29150390625,0.2724609375,0.6707763671875,0.7734375,0.50390625,1.21484375,0.072265625,-0.2734375,-0.068359375
2026-09-02T16:13:10.566794,0.62518310546875,0.29150390625,0.2724609375,0.6707763671875,0.7734375,0.50390625,1.21484375,0.072265625,-0.2734375,-0.068359375
2026-09-02T16:13:10.667518,0.62518310546875,0.29150390625,0.2724609375,0.6707763671875,0.7734375,0.50390625,1.21484375,0.072265625,-0.2734375,-0.068359375
2026-09-02T16:13:10.769127,0.62518310546875,0.29150390625,0.2724609375,0.6707763671875,0.7734375,0.50390625,1.21484375,0.072265625,-0.2734375,-0.068359375
2026-09-02T16:13:10.871829,0.62518310546875,0.29150390625,0.2724609375,0.6707763671875,0.7734375,0.50390625,1.21484375,0.072265625,-0.2734375,-0.068359375
2026-09-02T16:13:10.978020,0.62518310546875,0.29150390625,0.2724609375,0.6707763671875,0.7734375,0.50390625,1.21484375,0.072265625,-0.2734375,-0.068359375
2026-09-02T16:13:11.084776,0.62518310546875,0.29150390625,0.2724609375,0.6707763671875,0.7734375,0.50390625,1.21484375,0.072265625,-0.2734375,-0.068359375
2026-09-02T16:13:11.184599,0.62518310546875,0.29150390625,0.2724609375,0.6707763671875,0.7734375,0.50390625,1.21484375,0.072265625,-0.2734375,-0.068359375
2026-09-02T16:13:11.291399,0.62518310546875,0.29150390625,0.2724609375,0.6707763671875,0.7734375,0.50390625,1.21484375,0.072265625,-0.2734375,-0.068359375
2026-09-02T16:13:11.386775,0.62518310546875,0.29150390625,0.2724609375,0.6707763671875,0.7734375,0.50390625,1.21484375,0.072265625,-0.2734375,-0.068359375
2026-09-02T16:13:11.482035,0.62518310546875,0.29150390625,0.2724609375,0.6707763671875,0.7734375,0.50390625,1.21484375,0.072265625,-0.2734375,-0.068359375
2026-09-02T16:13:11.582101,0.62518310546875,0.29150390625,0.2724609375,0.6707763671875,0.7734375,0.50390625,1.21484375,0.072265625,-0.2734375,-0.068359375
2026-09-02T16:13:11.681673,0.62518310546875,0.29150390625,0.2724609375,0.6707763671875,0.7734375,0.50390625,1.21484375,0.072265625,-0.2734375,-0.068359375
2026-09-02T16:13:11.782266,0.62518310546875,0.29150390625,0.2724609375,0.6707763671875,0.7734375,0.50390625,1.21484375,0.072265625,-0.2734375,-0.068359375
2026-09-02T16:13:11.882453,0.62518310546875,0.29150390625,0.2724609375,0.6707763671875,0.7734375,0.50390625,1.21484375,0.072265625,-0.2734375,-0.068359375
2026-09-02T16:13:11.982542,0.62518310546875,0.29150390625,0.2724609375,0.6707763671875,0.7734375,0.50390625,1.21484375,0.072265625,-0.2734375,-0.068359375
2026-09-02T16:13:12.083313,0.62518310546875,0.29150390625,0.2724609375,0.6707763671875,0.7734375,0.50390625,1.21484375,0.072265625,-0.2734375,-0.068359375
2026-09-02T16:13:12.182675,0.62518310546875,0.29150390625,0.2724609375,0.6707763671875,0.7734375,0.50390625,1.21484375,0.072265625,-0.2734375,-0.068359375
2026-09-02T16:13:12.282806,0.62518310546875,0.29150390625,0.2724609375,0.6707763671875,0.7734375,0.50390625,1.21484375,0.072265625,-0.2734375,-0.068359375
2026-09-02T16:13:12.383015,0.62518310546875,0.29150390625,0.2724609375,0.6707763671875,0.7734375,0.50390625,1.21484375,0.072265625,-0.2734375,-0.068359375
2026-09-02T16:13:12.483026,0.62518310546875,0.29150390625,0.2724609375,0.6707763671875,0.7734375,0.50390625,1.21484375,0.072265625,-0.2734375,-0.068359375
2026-09-02T16:13:12.583065,0.62518310546875,0.29150390625,0.2724609375,0.6707763671875,0.7734375,0.50390625,1.21484375,0.072265625,-0.2734375,-0.068359375
2026-09-02T16:13:12.683013,0.62518310546875,0.29150390625,0.2724609375,0.6707763671875,0.7734375,0.50390625,1.21484375,0.072265625,-0.2734375,-0.068359375
2026-09-02T16:13:12.783284,0.62518310546875,0.29150390625,0.2724609375,0.6707763671875,0.7734375,0.50390625,1.21484375,0.072265625,-0.2734375,-0.068359375
2026-09-02T16:13:12.883501,0.62518310546875,0.29150390625,0.2724609375,0.6707763671875,0.7734375,0.50390625,1.21484375,0.072265625,-0.2734375,-0.068359375
2026-09-02T16:13:12.983541,0.62518310546875,0.29150390625,0.2724609375,0.6707763671875,0.7734375,0.50390625,1.21484375,0.072265625,-0.2734375,-0.068359375
2026-09-02T16:13:13.083771,0.62518310546875,0.29150390625,0.2724609375,0.6707763671875,0.7734375,0.50390625,1.21484375,0.072265625,-0.2734375,-0.068359375
2026-09-02T16:13:13.183733,0.62518310546875,0.29150390625,0.2724609375,0.6707763671875,0.7734375,0.50390625,1.21484375,0.072265625,-0.2734375,-0.068359375
2026-09-02T16:13:13.283839,0.62518310546875,0.29150390625,0.2724609375,0.6707763671875,0.7734375,0.50390625,1.21484375,0.072265625,-0.2734375,-0.068359375
2026-09-02T16:13:14.867906,0.62518310546875,0.29150390625,0.2724609375,0.6707763671875,0.7734375,0.50390625,1.21484375,0.072265625,-0.2734375,-0.068359375
2026-09-02T16:13:14.969231,0.62518310546875,0.29150390625,0.2724609375,0.6707763671875,0.7734375,0.50390625,1.21484375,0.072265625,-0.2734375,-0.068359375
2026-09-02T16:13:15.073657,0.62518310546875,0.29150390625,0.2724609375,0.6707763671875,0.7734375,0.50390625,1.21484375,0.072265625,-0.2734375,-0.068359375
2026-09-02T16:13:15.176026,0.62518310546875,0.29150390625,0.2724609375,0.6707763671875,0.7734375,0.50390625,1.21484375,0.072265625,-0.2734375,-0.068359375
2026-09-02T16:13:15.273923,0.62518310546875,0.29150390625,0.2724609375,0.6707763671875,0.7734375,0.50390625,1.21484375,0.072265625,-0.2734375,-0.068359375
2026-09-02T16:13:15.377342,0.62518310546875,0.29150390625,0.2724609375,0.6707763671875,0.7734375,0.50390625,1.21484375,0.072265625,-0.2734375,-0.068359375
2026-09-02T16:13:15.475520,0.62518310546875,0.29150390625,0.2724609375,0.6707763671875,0.7734375,0.50390625,1.21484375,0.072265625,-0.2734375,-0.068359375
2026-09-02T16:13:15.573724,0.62518310546875,0.29150390625,0.2724609375,0.6707763671875,0.7734375,0.50390625,1.21484375,0.072265625,-0.2734375,-0.068359375
2026-09-02T16:13:15.673981,0.62518310546875,0.29150390625,0.2724609375,0.6707763671875,0.7734375,0.50390625,1.21484375,0.072265625,-0.2734375,-0.068359375
2026-09-02T16:13:15.773750,0.62518310546875,0.29150390625,0.2724609375,0.6707763671875,0.7734375,0.50390625,1.21484375,0.072265625,-0.2734375,-0.068359375
2026-09-02T16:13:15.873813,0.62518310546875,0.29150390625,0.2724609375,0.6707763671875,0.7734375,0.50390625,1.21484375,0.072265625,-0.2734375,-0.068359375
2026-09-02T16:13:15.973947,0.62518310546875,0.29150390625,0.2724609375,0.6707763671875,0.7734375,0.50390625,1.21484375,0.072265625,-0.2734375,-0.068359375
2026-09-02T16:13:16.074013,0.62518310546875,0.29150390625,0.2724609375,0.6707763671875,0.7734375,0.50390625,1.21484375,0.072265625,-0.2734375,-0.068359375
2026-09-02T16:13:16.173714,0.62518310546875,0.29150390625,0.2724609375,0.6707763671875,0.7734375,0.50390625,1.21484375,0.072265625,-0.2734375,-0.068359375
2026-09-02T16:13:16.274208,0.62518310546875,0.29150390625,0.2724609375,0.6707763671875,0.7734375,0.50390625,1.21484375,0.072265625,-0.2734375,-0.068359375
2026-09-02T16:13:16.374516,0.62518310546875,0.29150390625,0.2724609375,0.6707763671875,0.7734375,0.50390625,1.21484375,0.072265625,-0.2734375,-0.068359375
2026-09-02T16:13:16.474475,0.62518310546875,0.29150390625,0.2724609375,0.6707763671875,0.7734375,0.50390625,1.21484375,0.072265625,-0.2734375,-0.068359375
2026-09-02T16:13:16.574604,0.62518310546875,0.29150390625,0.2724609375,0.6707763671875,0.7734375,0.50390625,1.21484375,0.072265625,-0.2734375,-0.068359375
2026-09-02T16:13:16.674831,0.62518310546875,0.29150390625,0.2724609375,0.6707763671875,0.7734375,0.50390625,1.21484375,0.072265625,-0.2734375,-0.068359375
2026-09-02T16:13:16.775212,0.62518310546875,0.29150390625,0.2724609375,0.6707763671875,0.7734375,0.50390625,1.21484375,0.072265625,-0.2734375,-0.068359375
2026-09-02T16:13:16.875994,0.62518310546875,0.29150390625,0.2724609375,0.6707763671875,0.7734375,0.50390625,1.21484375,0.072265625,-0.2734375,-0.068359375
2026-09-02T16:13:16.976706,0.62518310546875,0.29150390625,0.2724609375,0.6707763671875,0.7734375,0.50390625,1.21484375,0.072265625,-0.2734375,-0.068359375
2026-09-02T16:13:17.076704,0.62518310546875,0.29150390625,0.2724609375,0.6707763671875,0.7734375,0.50390625,1.21484375,0.072265625,-0.2734375,-0.068359375
2026-09-02T16:13:17.176702,0.62518310546875,0.29150390625,0.2724609375,0.6707763671875,0.7734375,0.50390625,1.21484375,0.072265625,-0.2734375,-0.068359375
2026-09-02T16:13:17.278434,0.62518310546875,0.29150390625,0.2724609375,0.6707763671875,0.7734375,0.50390625,1.21484375,0.072265625,-0.2734375,-0.068359375
2026-09-02T16:13:17.380433,0.62518310546875,0.29150390625,0.2724609375,0.6707763671875,0.7734375,0.50390625,1.21484375,0.072265625,-0.2734375,-0.068359375
2026-09-02T16:13:17.479670,0.62518310546875,0.29150390625,0.2724609375,0.6707763671875,0.7734375,0.50390625,1.21484375,0.072265625,-0.2734375,-0.068359375
2026-09-02T16:13:17.580176,0.62518310546875,0.29150390625,0.2724609375,0.6707763671875,0.7734375,0.50390625,1.21484375,0.072265625,-0.2734375,-0.068359375
2026-09-02T16:13:17.679718,0.62518310546875,0.29150390625,0.2724609375,0.6707763671875,0.7734375,0.50390625,1.21484375,0.072265625,-0.2734375,-0.068359375
2026-09-02T16:13:17.786402,0.62518310546875,0.29150390625,0.2724609375,0.6707763671875,0.7734375,0.50390625,1.21484375,0.072265625,-0.2734375,-0.068359375
2026-09-02T16:13:17.879961,0.62518310546875,0.29150390625,0.2724609375,0.6707763671875,0.7734375,0.50390625,1.21484375,0.072265625,-0.2734375,-0.068359375
2026-09-02T16:13:17.980010,0.62518310546875,0.29150390625,0.2724609375,0.6707763671875,0.7734375,0.50390625,1.21484375,0.072265625,-0.2734375,-0.068359375
2026-09-02T16:13:18.080116,0.62518310546875,0.29150390625,0.2724609375,0.6707763671875,0.7734375,0.50390625,1.21484375,0.072265625,-0.2734375,-0.068359375
2026-09-02T16:13:18.180319,0.62518310546875,0.29150390625,0.2724609375,0.6707763671875,0.7734375,0.50390625,1.21484375,0.072265625,-0.2734375,-0.068359375
2026-09-02T16:13:18.280401,0.62518310546875,0.29150390625,0.2724609375,0.6707763671875,0.7734375,0.50390625,1.21484375,0.072265625,-0.2734375,-0.068359375
2026-09-02T16:13:18.380437,0.62518310546875,0.29150390625,0.2724609375,0.6707763671875,0.7734375,0.50390625,1.21484375,0.072265625,-0.2734375,-0.068359375
2026-09-02T16:13:18.480632,0.62518310546875,0.29150390625,0.2724609375,0.6707763671875,0.7734375,0.50390625,1.21484375,0.072265625,-0.2734375,-0.068359375
2026-09-02T16:13:18.580655,0.62518310546875,0.29150390625,0.2724609375,0.6707763671875,0.7734375,0.50390625,1.21484375,0.072265625,-0.2734375,-0.068359375
2026-09-02T16:13:18.680807,0.62518310546875,0.29150390625,0.2724609375,0.6707763671875,0.7734375,0.50390625,1.21484375,0.072265625,-0.2734375,-0.068359375
2026-09-02T16:13:18.780921,0.62518310546875,0.29150390625,0.2724609375,0.6707763671875,0.7734375,0.50390625,1.21484375,0.072265625,-0.2734375,-0.068359375
2026-09-02T16:13:18.881066,0.62518310546875,0.29150390625,0.2724609375,0.6707763671875,0.7734375,0.50390625,1.21484375,0.072265625,-0.2734375,-0.068359375
2026-09-02T16:13:18.981179,0.62518310546875,0.29150390625,0.2724609375,0.6707763671875,0.7734375,0.50390625,1.21484375,0.072265625,-0.2734375,-0.068359375
2026-09-02T16:13:19.081305,0.62518310546875,0.29150390625,0.2724609375,0.6707763671875,0.7734375,0.50390625,1.21484375,0.072265625,-0.2734375,-0.068359375
2026-09-02T16:13:19.180976,0.62518310546875,0.29150390625,0.2724609375,0.6707763671875,0.7734375,0.50390625,1.21484375,0.072265625,-0.2734375,-0.068359375
2026-09-02T16:13:19.281413,0.62518310546875,0.29150390625,0.2724609375,0.6707763671875,0.7734375,0.50390625,1.21484375,0.072265625,-0.2734375,-0.068359375
2026-09-02T16:13:19.381827,0.62518310546875,0.29150390625,0.2724609375,0.6707763671875,0.7734375,0.50390625,1.21484375,0.072265625,-0.2734375,-0.068359375
2026-09-02T16:13:19.481797,0.62518310546875,0.29150390625,0.2724609375,0.6707763671875,0.7734375,0.50390625,1.21484375,0.072265625,-0.2734375,-0.068359375
2026-09-02T16:13:19.581924,0.62518310546875,0.29150390625,0.2724609375,0.6707763671875,0.7734375,0.50390625,1.21484375,0.072265625,-0.2734375,-0.068359375
2026-09-02T16:13:19.682013,0.62518310546875,0.29150390625,0.2724609375,0.6707763671875,0.7734375,0.50390625,1.21484375,0.072265625,-0.2734375,-0.068359375
2026-09-02T16:13:19.782767,0.62518310546875,0.29150390625,0.2724609375,0.6707763671875,0.7734375,0.50390625,1.21484375,0.072265625,-0.2734375,-0.068359375
2026-09-02T16:13:19.882243,0.62518310546875,0.29150390625,0.2724609375,0.6707763671875,0.7734375,0.50390625,1.21484375,0.072265625,-0.2734375,-0.068359375
2026-09-02T16:13:19.982351,0.62518310546875,0.29150390625,0.2724609375,0.6707763671875,0.7734375,0.50390625,1.21484375,0.072265625,-0.2734375,-0.068359375
2026-09-02T16:13:20.082669,0.62518310546875,0.29150390625,0.2724609375,0.6707763671875,0.7734375,0.50390625,1.21484375,0.072265625,-0.2734375,-0.068359375
2026-09-02T16:13:20.182834,0.62518310546875,0.29150390625,0.2724609375,0.6707763671875,0.7734375,0.50390625,1.21484375,0.072265625,-0.2734375,-0.068359375
2026-09-02T16:13:20.282820,0.62518310546875,0.29150390625,0.2724609375,0.6707763671875,0.7734375,0.50390625,1.21484375,0.072265625,-0.2734375,-0.068359375
2026-09-02T16:13:20.383247,0.62518310546875,0.29150390625,0.2724609375,0.6707763671875,0.7734375,0.50390625,1.21484375,0.072265625,-0.2734375,-0.068359375
2026-09-02T16:13:20.483695,0.62518310546875,0.29150390625,0.2724609375,0.6707763671875,0.7734375,0.50390625,1.21484375,0.072265625,-0.2734375,-0.068359375
2026-09-02T16:13:20.583314,0.62518310546875,0.29150390625,0.2724609375,0.6707763671875,0.7734375,0.50390625,1.21484375,0.072265625,-0.2734375,-0.068359375
2026-09-02T16:13:20.683487,0.62518310546875,0.29150390625,0.2724609375,0.6707763671875,0.7734375,0.50390625,1.21484375,0.072265625,-0.2734375,-0.068359375
2026-09-02T16:13:20.783574,0.62518310546875,0.29150390625,0.2724609375,0.6707763671875,0.7734375,0.50390625,1.21484375,0.072265625,-0.2734375,-0.068359375
2026-09-02T16:13:20.883863,0.62518310546875,0.29150390625,0.2724609375,0.6707763671875,0.7734375,0.50390625,1.21484375,0.072265625,-0.2734375,-0.068359375
2026-09-02T16:13:20.983818,0.62518310546875,0.29150390625,0.2724609375,0.6707763671875,0.7734375,0.50390625,1.21484375,0.072265625,-0.2734375,-0.068359375
2026-09-02T16:13:21.084188,0.62518310546875,0.29150390625,0.2724609375,0.6707763671875,0.7734375,0.50390625,1.21484375,0.072265625,-0.2734375,-0.068359375
2026-09-02T16:13:21.184008,0.62518310546875,0.29150390625,0.2724609375,0.6707763671875,0.7734375,0.50390625,1.21484375,0.072265625,-0.2734375,-0.068359375
2026-09-02T16:13:21.284138,0.62518310546875,0.29150390625,0.2724609375,0.6707763671875,0.7734375,0.50390625,1.21484375,0.072265625,-0.2734375,-0.068359375
2026-09-02T16:13:21.384187,0.62518310546875,0.29150390625,0.2724609375,0.6707763671875,0.7734375,0.50390625,1.21484375,0.072265625,-0.2734375,-0.068359375
2026-09-02T16:13:21.484365,0.62518310546875,0.29150390625,0.2724609375,0.6707763671875,0.7734375,0.50390625,1.21484375,0.072265625,-0.2734375,-0.068359375
2026-09-02T16:13:21.584456,0.62518310546875,0.29150390625,0.2724609375,0.6707763671875,0.7734375,0.50390625,1.21484375,0.072265625,-0.2734375,-0.068359375
2026-09-02T16:13:21.684521,0.62518310546875,0.29150390625,0.2724609375,0.6707763671875,0.7734375,0.50390625,1.21484375,0.072265625,-0.2734375,-0.068359375
2026-09-02T16:13:21.784603,0.62518310546875,0.29150390625,0.2724609375,0.6707763671875,0.7734375,0.50390625,1.21484375,0.072265625,-0.2734375,-0.068359375
2026-09-02T16:13:21.884756,0.62518310546875,0.29150390625,0.2724609375,0.6707763671875,0.7734375,0.50390625,1.21484375,0.072265625,-0.2734375,-0.068359375
2026-09-02T16:13:21.984910,0.62518310546875,0.29150390625,0.2724609375,0.6707763671875,0.7734375,0.50390625,1.21484375,0.072265625,-0.2734375,-0.068359375
2026-09-02T16:13:22.084957,0.62518310546875,0.29150390625,0.2724609375,0.6707763671875,0.7734375,0.50390625,1.21484375,0.072265625,-0.2734375,-0.068359375
2026-09-02T16:13:22.184760,0.62518310546875,0.29150390625,0.2724609375,0.6707763671875,0.7734375,0.50390625,1.21484375,0.072265625,-0.2734375,-0.068359375
2026-09-02T16:13:22.286738,0.62518310546875,0.29150390625,0.2724609375,0.6707763671875,0.7734375,0.50390625,1.21484375,0.072265625,-0.2734375,-0.068359375
2026-09-02T16:13:22.385296,0.62518310546875,0.29150390625,0.2724609375,0.6707763671875,0.7734375,0.50390625,1.21484375,0.072265625,-0.2734375,-0.068359375
2026-09-02T16:13:22.485409,0.62518310546875,0.29150390625,0.2724609375,0.6707763671875,0.7734375,0.50390625,1.21484375,0.072265625,-0.2734375,-0.068359375
2026-09-02T16:13:22.585499,0.62518310546875,0.29150390625,0.2724609375,0.6707763671875,0.7734375,0.50390625,1.21484375,0.072265625,-0.2734375,-0.068359375
2026-09-02T16:13:22.685598,0.62518310546875,0.29150390625,0.2724609375,0.6707763671875,0.7734375,0.50390625,1.21484375,0.072265625,-0.2734375,-0.068359375
2026-09-02T16:13:22.785852,0.62518310546875,0.29150390625,0.2724609375,0.6707763671875,0.7734375,0.50390625,1.21484375,0.072265625,-0.2734375,-0.068359375
2026-09-02T16:13:22.885853,0.62518310546875,0.29150390625,0.2724609375,0.6707763671875,0.7734375,0.50390625,1.21484375,0.072265625,-0.2734375,-0.068359375
2026-09-02T16:13:22.985908,0.62518310546875,0.29150390625,0.2724609375,0.6707763671875,0.7734375,0.50390625,1.21484375,0.072265625,-0.2734375,-0.068359375
2026-09-02T16:13:23.086121,0.62518310546875,0.29150390625,0.2724609375,0.6707763671875,0.7734375,0.50390625,1.21484375,0.072265625,-0.2734375,-0.068359375
2026-09-02T16:13:23.186141,0.62518310546875,0.29150390625,0.2724609375,0.6707763671875,0.7734375,0.50390625,1.21484375,0.072265625,-0.2734375,-0.068359375
2026-09-02T16:13:23.286303,0.62518310546875,0.29150390625,0.2724609375,0.6707763671875,0.7734375,0.50390625,1.21484375,0.072265625,-0.2734375,-0.068359375
2026-09-02T16:13:23.386717,0.62518310546875,0.29150390625,0.2724609375,0.6707763671875,0.7734375,0.50390625,1.21484375,0.072265625,-0.2734375,-0.068359375
2026-09-02T16:13:23.490395,0.62518310546875,0.29150390625,0.2724609375,0.6707763671875,0.7734375,0.50390625,1.21484375,0.072265625,-0.2734375,-0.068359375
2026-09-02T16:13:23.589111,0.62518310546875,0.29150390625,0.2724609375,0.6707763671875,0.7734375,0.50390625,1.21484375,0.072265625,-0.2734375,-0.068359375
2026-09-02T16:13:23.688780,0.62518310546875,0.29150390625,0.2724609375,0.6707763671875,0.7734375,0.50390625,1.21484375,0.072265625,-0.2734375,-0.068359375
2026-09-02T16:13:23.789679,0.62518310546875,0.29150390625,0.2724609375,0.6707763671875,0.7734375,0.50390625,1.21484375,0.072265625,-0.2734375,-0.068359375
2026-09-02T16:13:23.888783,0.62518310546875,0.29150390625,0.2724609375,0.6707763671875,0.7734375,0.50390625,1.21484375,0.072265625,-0.2734375,-0.068359375
2026-09-02T16:13:23.988830,0.62518310546875,0.29150390625,0.2724609375,0.6707763671875,0.7734375,0.50390625,1.21484375,0.072265625,-0.2734375,-0.068359375
2026-09-02T16:13:24.088103,0.62518310546875,0.29150390625,0.2724609375,0.6707763671875,0.7734375,0.50390625,1.21484375,0.072265625,-0.2734375,-0.068359375
2026-09-02T16:13:24.188596,0.62518310546875,0.29150390625,0.2724609375,0.6707763671875,0.7734375,0.50390625,1.21484375,0.072265625,-0.2734375,-0.068359375
2026-09-02T16:13:24.288299,0.62518310546875,0.29150390625,0.2724609375,0.6707763671875,0.7734375,0.50390625,1.21484375,0.072265625,-0.2734375,-0.068359375
2026-09-02T16:13:24.388286,0.62518310546875,0.29150390625,0.2724609375,0.6707763671875,0.7734375,0.50390625,1.21484375,0.072265625,-0.2734375,-0.068359375
2026-09-02T16:13:24.488478,0.62518310546875,0.29150390625,0.2724609375,0.6707763671875,0.7734375,0.50390625,1.21484375,0.072265625,-0.2734375,-0.068359375
2026-09-02T16:13:24.588450,0.62518310546875,0.29150390625,0.2724609375,0.6707763671875,0.7734375,0.50390625,1.21484375,0.072265625,-0.2734375,-0.068359375
2026-09-02T16:13:24.688715,0.62518310546875,0.29150390625,0.2724609375,0.6707763671875,0.7734375,0.50390625,1.21484375,0.072265625,-0.2734375,-0.068359375
2026-09-02T16:13:24.788667,0.62518310546875,0.29150390625,0.2724609375,0.6707763671875,0.7734375,0.50390625,1.21484375,0.072265625,-0.2734375,-0.068359375
2026-09-02T16:13:24.888985,0.62518310546875,0.29150390625,0.2724609375,0.6707763671875,0.7734375,0.50390625,1.21484375,0.072265625,-0.2734375,-0.068359375
2026-09-02T16:13:24.989128,0.62518310546875,0.29150390625,0.2724609375,0.6707763671875,0.7734375,0.50390625,1.21484375,0.072265625,-0.2734375,-0.068359375
2026-09-02T16:13:25.089414,0.62518310546875,0.29150390625,0.2724609375,0.6707763671875,0.7734375,0.50390625,1.21484375,0.072265625,-0.2734375,-0.068359375
2026-09-02T16:13:25.190058,0.62518310546875,0.29150390625,0.2724609375,0.6707763671875,0.7734375,0.50390625,1.21484375,0.072265625,-0.2734375,-0.068359375
2026-09-02T16:13:25.289660,0.62518310546875,0.29150390625,0.2724609375,0.6707763671875,0.7734375,0.50390625,1.21484375,0.072265625,-0.2734375,-0.068359375
2026-09-02T16:13:25.390002,0.62518310546875,0.29150390625,0.2724609375,0.6707763671875,0.7734375,0.50390625,1.21484375,0.072265625,-0.2734375,-0.068359375
2026-09-02T16:13:25.490493,0.62518310546875,0.29150390625,0.2724609375,0.6707763671875,0.7734375,0.50390625,1.21484375,0.072265625,-0.2734375,-0.068359375
2026-09-02T16:13:25.589840,0.62518310546875,0.29150390625,0.2724609375,0.6707763671875,0.7734375,0.50390625,1.21484375,0.072265625,-0.2734375,-0.068359375
2026-09-02T16:13:25.689844,0.62518310546875,0.29150390625,0.2724609375,0.6707763671875,0.7734375,0.50390625,1.21484375,0.072265625,-0.2734375,-0.068359375
2026-09-02T16:13:25.790001,0.62518310546875,0.29150390625,0.2724609375,0.6707763671875,0.7734375,0.50390625,1.21484375,0.072265625,-0.2734375,-0.068359375
2026-09-02T16:13:25.890104,0.62518310546875,0.29150390625,0.2724609375,0.6707763671875,0.7734375,0.50390625,1.21484375,0.072265625,-0.2734375,-0.068359375
2026-09-02T16:13:25.990211,0.62518310546875,0.29150390625,0.2724609375,0.6707763671875,0.7734375,0.50390625,1.21484375,0.072265625,-0.2734375,-0.068359375
2026-09-02T16:13:26.090336,0.62518310546875,0.29150390625,0.2724609375,0.6707763671875,0.7734375,0.50390625,1.21484375,0.072265625,-0.2734375,-0.068359375
2026-09-02T16:13:26.190560,0.62518310546875,0.29150390625,0.2724609375,0.6707763671875,0.7734375,0.50390625,1.21484375,0.072265625,-0.2734375,-0.068359375
2026-09-02T16:13:26.290576,0.62518310546875,0.29150390625,0.2724609375,0.6707763671875,0.7734375,0.50390625,1.21484375,0.072265625,-0.2734375,-0.068359375
2026-09-02T16:13:26.390728,0.62518310546875,0.29150390625,0.2724609375,0.6707763671875,0.7734375,0.50390625,1.21484375,0.072265625,-0.2734375,-0.068359375
2026-09-02T16:13:26.490727,0.62518310546875,0.29150390625,0.2724609375,0.6707763671875,0.7734375,0.50390625,1.21484375,0.072265625,-0.2734375,-0.068359375
2026-09-02T16:13:26.590833,0.62518310546875,0.29150390625,0.2724609375,0.6707763671875,0.7734375,0.50390625,1.21484375,0.072265625,-0.2734375,-0.068359375
2026-09-02T16:13:26.690958,0.62518310546875,0.29150390625,0.2724609375,0.6707763671875,0.7734375,0.50390625,1.21484375,0.072265625,-0.2734375,-0.068359375
2026-09-02T16:13:26.791088,0.62518310546875,0.29150390625,0.2724609375,0.6707763671875,0.7734375,0.50390625,1.21484375,0.072265625,-0.2734375,-0.068359375
2026-09-02T16:13:26.891148,0.62518310546875,0.29150390625,0.2724609375,0.6707763671875,0.7734375,0.50390625,1.21484375,0.072265625,-0.2734375,-0.068359375
2026-09-02T16:13:26.991345,0.62518310546875,0.29150390625,0.2724609375,0.6707763671875,0.7734375,0.50390625,1.21484375,0.072265625,-0.2734375,-0.068359375
2026-09-02T16:13:27.091407,0.62518310546875,0.29150390625,0.2724609375,0.6707763671875,0.7734375,0.50390625,1.21484375,0.072265625,-0.2734375,-0.068359375
2026-09-02T16:13:27.191474,0.62518310546875,0.29150390625,0.2724609375,0.6707763671875,0.7734375,0.50390625,1.21484375,0.072265625,-0.2734375,-0.068359375
2026-09-02T16:13:27.291666,0.62518310546875,0.29150390625,0.2724609375,0.6707763671875,0.7734375,0.50390625,1.21484375,0.072265625,-0.2734375,-0.068359375
2026-09-02T16:13:27.391741,0.62518310546875,0.29150390625,0.2724609375,0.6707763671875,0.7734375,0.50390625,1.21484375,0.072265625,-0.2734375,-0.068359375
2026-09-02T16:13:27.491891,0.62518310546875,0.29150390625,0.2724609375,0.6707763671875,0.7734375,0.50390625,1.21484375,0.072265625,-0.2734375,-0.068359375
2026-09-02T16:13:27.591889,0.62518310546875,0.29150390625,0.2724609375,0.6707763671875,0.7734375,0.50390625,1.21484375,0.072265625,-0.2734375,-0.068359375
2026-09-02T16:13:27.692052,0.62518310546875,0.29150390625,0.2724609375,0.6707763671875,0.7734375,0.50390625,1.21484375,0.072265625,-0.2734375,-0.068359375
2026-09-02T16:13:27.792046,0.62518310546875,0.29150390625,0.2724609375,0.6707763671875,0.7734375,0.50390625,1.21484375,0.072265625,-0.2734375,-0.068359375
2026-09-02T16:13:27.892338,0.62518310546875,0.29150390625,0.2724609375,0.6707763671875,0.7734375,0.50390625,1.21484375,0.072265625,-0.2734375,-0.068359375
2026-09-02T16:13:27.992304,0.62518310546875,0.29150390625,0.2724609375,0.6707763671875,0.7734375,0.50390625,1.21484375,0.072265625,-0.2734375,-0.068359375
2026-09-02T16:13:28.092504,0.62518310546875,0.29150390625,0.2724609375,0.6707763671875,0.7734375,0.50390625,1.21484375,0.072265625,-0.2734375,-0.068359375
2026-09-02T16:13:28.192519,0.62518310546875,0.29150390625,0.2724609375,0.6707763671875,0.7734375,0.50390625,1.21484375,0.072265625,-0.2734375,-0.068359375
2026-09-02T16:13:28.292712,0.62518310546875,0.29150390625,0.2724609375,0.6707763671875,0.7734375,0.50390625,1.21484375,0.072265625,-0.2734375,-0.068359375
2026-09-02T16:13:28.392700,0.62518310546875,0.29150390625,0.2724609375,0.6707763671875,0.7734375,0.50390625,1.21484375,0.072265625,-0.2734375,-0.068359375
2026-09-02T16:13:28.492913,0.62518310546875,0.29150390625,0.2724609375,0.6707763671875,0.7734375,0.50390625,1.21484375,0.072265625,-0.2734375,-0.068359375
2026-09-02T16:13:28.592911,0.62518310546875,0.29150390625,0.2724609375,0.6707763671875,0.7734375,0.50390625,1.21484375,0.072265625,-0.2734375,-0.068359375
2026-09-02T16:13:28.693098,0.62518310546875,0.29150390625,0.2724609375,0.6707763671875,0.7734375,0.50390625,1.21484375,0.072265625,-0.2734375,-0.068359375
2026-09-02T16:13:28.793115,0.62518310546875,0.29150390625,0.2724609375,0.6707763671875,0.7734375,0.50390625,1.21484375,0.072265625,-0.2734375,-0.068359375
2026-09-02T16:13:28.893242,0.62518310546875,0.29150390625,0.2724609375,0.6707763671875,0.7734375,0.50390625,1.21484375,0.072265625,-0.2734375,-0.068359375
2026-09-02T16:13:28.993383,0.62518310546875,0.29150390625,0.2724609375,0.6707763671875,0.7734375,0.50390625,1.21484375,0.072265625,-0.2734375,-0.068359375
2026-09-02T16:13:29.093448,0.62518310546875,0.29150390625,0.2724609375,0.6707763671875,0.7734375,0.50390625,1.21484375,0.072265625,-0.2734375,-0.068359375
2026-09-02T16:13:29.193667,0.62518310546875,0.29150390625,0.2724609375,0.6707763671875,0.7734375,0.50390625,1.21484375,0.072265625,-0.2734375,-0.068359375
2026-09-02T16:13:29.293614,0.62518310546875,0.29150390625,0.2724609375,0.6707763671875,0.7734375,0.50390625,1.21484375,0.072265625,-0.2734375,-0.068359375
2026-09-02T16:13:29.393725,0.62518310546875,0.29150390625,0.2724609375,0.6707763671875,0.7734375,0.50390625,1.21484375,0.072265625,-0.2734375,-0.068359375
2026-09-02T16:13:29.493863,0.62518310546875,0.29150390625,0.2724609375,0.6707763671875,0.7734375,0.50390625,1.21484375,0.072265625,-0.2734375,-0.068359375
2026-09-02T16:13:29.593930,0.62518310546875,0.29150390625,0.2724609375,0.6707763671875,0.7734375,0.50390625,1.21484375,0.072265625,-0.2734375,-0.068359375
2026-09-02T16:13:29.694077,0.62518310546875,0.29150390625,0.2724609375,0.6707763671875,0.7734375,0.50390625,1.21484375,0.072265625,-0.2734375,-0.068359375
2026-09-02T16:13:29.794132,0.62518310546875,0.29150390625,0.2724609375,0.6707763671875,0.7734375,0.50390625,1.21484375,0.072265625,-0.2734375,-0.068359375
2026-09-02T16:13:29.894270,0.62518310546875,0.29150390625,0.2724609375,0.6707763671875,0.7734375,0.50390625,1.21484375,0.072265625,-0.2734375,-0.068359375
2026-09-02T16:13:29.994352,0.62518310546875,0.29150390625,0.2724609375,0.6707763671875,0.7734375,0.50390625,1.21484375,0.072265625,-0.2734375,-0.068359375
2026-09-02T16:13:30.094719,0.62518310546875,0.29150390625,0.2724609375,0.6707763671875,0.7734375,0.50390625,1.21484375,0.072265625,-0.2734375,-0.068359375
2026-09-02T16:13:30.194718,0.62518310546875,0.29150390625,0.2724609375,0.6707763671875,0.7734375,0.50390625,1.21484375,0.072265625,-0.2734375,-0.068359375
2026-09-02T16:13:30.294715,0.62518310546875,0.29150390625,0.2724609375,0.6707763671875,0.7734375,0.50390625,1.21484375,0.072265625,-0.2734375,-0.068359375
2026-09-02T16:13:30.394900,0.62518310546875,0.29150390625,0.2724609375,0.6707763671875,0.7734375,0.50390625,1.21484375,0.072265625,-0.2734375,-0.068359375
2026-09-02T16:13:30.494988,0.62518310546875,0.29150390625,0.2724609375,0.6707763671875,0.7734375,0.50390625,1.21484375,0.072265625,-0.2734375,-0.068359375
2026-09-02T16:13:30.595202,0.62518310546875,0.29150390625,0.2724609375,0.6707763671875,0.7734375,0.50390625,1.21484375,0.072265625,-0.2734375,-0.068359375
2026-09-02T16:13:30.695295,0.62518310546875,0.29150390625,0.2724609375,0.6707763671875,0.7734375,0.50390625,1.21484375,0.072265625,-0.2734375,-0.068359375
2026-09-02T16:13:30.795610,0.62518310546875,0.29150390625,0.2724609375,0.6707763671875,0.7734375,0.50390625,1.21484375,0.072265625,-0.2734375,-0.068359375
2026-09-02T16:13:30.895547,0.62518310546875,0.29150390625,0.2724609375,0.6707763671875,0.7734375,0.50390625,1.21484375,0.072265625,-0.2734375,-0.068359375
2026-09-02T16:13:30.995680,0.62518310546875,0.29150390625,0.2724609375,0.6707763671875,0.7734375,0.50390625,1.21484375,0.072265625,-0.2734375,-0.068359375
2026-09-02T16:13:31.095929,0.62518310546875,0.29150390625,0.2724609375,0.6707763671875,0.7734375,0.50390625,1.21484375,0.072265625,-0.2734375,-0.068359375
2026-09-02T16:13:31.195803,0.62518310546875,0.29150390625,0.2724609375,0.6707763671875,0.7734375,0.50390625,1.21484375,0.072265625,-0.2734375,-0.068359375
2026-09-02T16:13:31.295934,0.62518310546875,0.29150390625,0.2724609375,0.6707763671875,0.7734375,0.50390625,1.21484375,0.072265625,-0.2734375,-0.068359375
2026-09-02T16:13:31.396159,0.62518310546875,0.29150390625,0.2724609375,0.6707763671875,0.7734375,0.50390625,1.21484375,0.072265625,-0.2734375,-0.068359375
2026-09-02T16:13:31.496280,0.62518310546875,0.29150390625,0.2724609375,0.6707763671875,0.7734375,0.50390625,1.21484375,0.072265625,-0.2734375,-0.068359375
2026-09-02T16:13:31.596419,0.62518310546875,0.29150390625,0.2724609375,0.6707763671875,0.7734375,0.50390625,1.21484375,0.072265625,-0.2734375,-0.068359375
2026-09-02T16:13:31.696353,0.62518310546875,0.29150390625,0.2724609375,0.6707763671875,0.7734375,0.50390625,1.21484375,0.072265625,-0.2734375,-0.068359375
2026-09-02T16:13:31.796512,0.62518310546875,0.29150390625,0.2724609375,0.6707763671875,0.7734375,0.50390625,1.21484375,0.072265625,-0.2734375,-0.068359375
2026-09-02T16:13:31.896678,0.62518310546875,0.29150390625,0.2724609375,0.6707763671875,0.7734375,0.50390625,1.21484375,0.072265625,-0.2734375,-0.068359375
2026-09-02T16:13:31.996887,0.62518310546875,0.29150390625,0.2724609375,0.6707763671875,0.7734375,0.50390625,1.21484375,0.072265625,-0.2734375,-0.068359375
2026-09-02T16:13:32.096913,0.62518310546875,0.29150390625,0.2724609375,0.6707763671875,0.7734375,0.50390625,1.21484375,0.072265625,-0.2734375,-0.068359375
2026-09-02T16:13:32.197169,0.62518310546875,0.29150390625,0.2724609375,0.6707763671875,0.7734375,0.50390625,1.21484375,0.072265625,-0.2734375,-0.068359375
2026-09-02T16:13:32.297169,0.62518310546875,0.29150390625,0.2724609375,0.6707763671875,0.7734375,0.50390625,1.21484375,0.072265625,-0.2734375,-0.068359375
2026-09-02T16:13:32.397329,0.62518310546875,0.29150390625,0.2724609375,0.6707763671875,0.7734375,0.50390625,1.21484375,0.072265625,-0.2734375,-0.068359375
2026-09-02T16:13:32.497362,0.62518310546875,0.29150390625,0.2724609375,0.6707763671875,0.7734375,0.50390625,1.21484375,0.072265625,-0.2734375,-0.068359375
2026-09-02T16:13:32.597471,0.62518310546875,0.29150390625,0.2724609375,0.6707763671875,0.7734375,0.50390625,1.21484375,0.072265625,-0.2734375,-0.068359375
2026-09-02T16:13:32.697611,0.62518310546875,0.29150390625,0.2724609375,0.6707763671875,0.7734375,0.50390625,1.21484375,0.072265625,-0.2734375,-0.068359375
2026-09-02T16:13:32.797697,0.62518310546875,0.29150390625,0.2724609375,0.6707763671875,0.7734375,0.50390625,1.21484375,0.072265625,-0.2734375,-0.068359375
2026-09-02T16:13:32.897782,0.62518310546875,0.29150390625,0.2724609375,0.6707763671875,0.7734375,0.50390625,1.21484375,0.072265625,-0.2734375,-0.068359375
2026-09-02T16:13:32.998039,0.62518310546875,0.29150390625,0.2724609375,0.6707763671875,0.7734375,0.50390625,1.21484375,0.072265625,-0.2734375,-0.068359375
2026-09-02T16:13:33.098117,0.62518310546875,0.29150390625,0.2724609375,0.6707763671875,0.7734375,0.50390625,1.21484375,0.072265625,-0.2734375,-0.068359375
2026-09-02T16:13:33.198270,0.62518310546875,0.29150390625,0.2724609375,0.6707763671875,0.7734375,0.50390625,1.21484375,0.072265625,-0.2734375,-0.068359375
2026-09-02T16:13:33.298311,0.62518310546875,0.29150390625,0.2724609375,0.6707763671875,0.7734375,0.50390625,1.21484375,0.072265625,-0.2734375,-0.068359375
2026-09-02T16:13:33.398488,0.62518310546875,0.29150390625,0.2724609375,0.6707763671875,0.7734375,0.50390625,1.21484375,0.072265625,-0.2734375,-0.068359375
2026-09-02T16:13:33.498539,0.62518310546875,0.29150390625,0.2724609375,0.6707763671875,0.7734375,0.50390625,1.21484375,0.072265625,-0.2734375,-0.068359375
2026-09-02T16:13:33.598669,0.62518310546875,0.29150390625,0.2724609375,0.6707763671875,0.7734375,0.50390625,1.21484375,0.072265625,-0.2734375,-0.068359375
2026-09-02T16:13:33.698811,0.62518310546875,0.29150390625,0.2724609375,0.6707763671875,0.7734375,0.50390625,1.21484375,0.072265625,-0.2734375,-0.068359375
2026-09-02T16:13:33.798896,0.62518310546875,0.29150390625,0.2724609375,0.6707763671875,0.7734375,0.50390625,1.21484375,0.072265625,-0.2734375,-0.068359375
2026-09-02T16:13:33.899174,0.62518310546875,0.29150390625,0.2724609375,0.6707763671875,0.7734375,0.50390625,1.21484375,0.072265625,-0.2734375,-0.068359375
2026-09-02T16:13:33.999237,0.62518310546875,0.29150390625,0.2724609375,0.6707763671875,0.7734375,0.50390625,1.21484375,0.072265625,-0.2734375,-0.068359375
2026-09-02T16:13:34.099288,0.62518310546875,0.29150390625,0.2724609375,0.6707763671875,0.7734375,0.50390625,1.21484375,0.072265625,-0.2734375,-0.068359375
2026-09-02T16:13:34.199336,0.62518310546875,0.29150390625,0.2724609375,0.6707763671875,0.7734375,0.50390625,1.21484375,0.072265625,-0.2734375,-0.068359375
2026-09-02T16:13:34.299547,0.62518310546875,0.29150390625,0.2724609375,0.6707763671875,0.7734375,0.50390625,1.21484375,0.072265625,-0.2734375,-0.068359375
2026-09-02T16:13:34.399745,0.62518310546875,0.29150390625,0.2724609375,0.6707763671875,0.7734375,0.50390625,1.21484375,0.072265625,-0.2734375,-0.068359375
2026-09-02T16:13:34.499813,0.62518310546875,0.29150390625,0.2724609375,0.6707763671875,0.7734375,0.50390625,1.21484375,0.072265625,-0.2734375,-0.068359375
2026-09-02T16:13:34.599839,0.62518310546875,0.29150390625,0.2724609375,0.6707763671875,0.7734375,0.50390625,1.21484375,0.072265625,-0.2734375,-0.068359375
2026-09-02T16:13:34.699937,0.62518310546875,0.29150390625,0.2724609375,0.6707763671875,0.7734375,0.50390625,1.21484375,0.072265625,-0.2734375,-0.068359375
2026-09-02T16:13:34.800067,0.62518310546875,0.29150390625,0.2724609375,0.6707763671875,0.7734375,0.50390625,1.21484375,0.072265625,-0.2734375,-0.068359375
2026-09-02T16:13:34.900150,0.62518310546875,0.29150390625,0.2724609375,0.6707763671875,0.7734375,0.50390625,1.21484375,0.072265625,-0.2734375,-0.068359375
2026-09-02T16:13:35.000340,0.62518310546875,0.29150390625,0.2724609375,0.6707763671875,0.7734375,0.50390625,1.21484375,0.072265625,-0.2734375,-0.068359375
2026-09-02T16:13:35.100439,0.62518310546875,0.29150390625,0.2724609375,0.6707763671875,0.7734375,0.50390625,1.21484375,0.072265625,-0.2734375,-0.068359375
2026-09-02T16:13:35.200783,0.62518310546875,0.29150390625,0.2724609375,0.6707763671875,0.7734375,0.50390625,1.21484375,0.072265625,-0.2734375,-0.068359375
2026-09-02T16:13:35.300656,0.62518310546875,0.29150390625,0.2724609375,0.6707763671875,0.7734375,0.50390625,1.21484375,0.072265625,-0.2734375,-0.068359375
2026-09-02T16:13:35.400775,0.62518310546875,0.29150390625,0.2724609375,0.6707763671875,0.7734375,0.50390625,1.21484375,0.072265625,-0.2734375,-0.068359375
2026-09-02T16:13:35.500864,0.62518310546875,0.29150390625,0.2724609375,0.6707763671875,0.7734375,0.50390625,1.21484375,0.072265625,-0.2734375,-0.068359375
2026-09-02T16:13:35.601044,0.62518310546875,0.29150390625,0.2724609375,0.6707763671875,0.7734375,0.50390625,1.21484375,0.072265625,-0.2734375,-0.068359375
2026-09-02T16:13:35.701276,0.62518310546875,0.29150390625,0.2724609375,0.6707763671875,0.7734375,0.50390625,1.21484375,0.072265625,-0.2734375,-0.068359375
2026-09-02T16:13:35.801256,0.62518310546875,0.29150390625,0.2724609375,0.6707763671875,0.7734375,0.50390625,1.21484375,0.072265625,-0.2734375,-0.068359375
2026-09-02T16:13:35.901549,0.62518310546875,0.29150390625,0.2724609375,0.6707763671875,0.7734375,0.50390625,1.21484375,0.072265625,-0.2734375,-0.068359375
2026-09-02T16:13:36.001606,0.62518310546875,0.29150390625,0.2724609375,0.6707763671875,0.7734375,0.50390625,1.21484375,0.072265625,-0.2734375,-0.068359375
2026-09-02T16:13:36.101619,0.62518310546875,0.29150390625,0.2724609375,0.6707763671875,0.7734375,0.50390625,1.21484375,0.072265625,-0.2734375,-0.068359375
2026-09-02T16:13:36.201915,0.62518310546875,0.29150390625,0.2724609375,0.6707763671875,0.7734375,0.50390625,1.21484375,0.072265625,-0.2734375,-0.068359375
2026-09-02T16:13:36.301853,0.62518310546875,0.29150390625,0.2724609375,0.6707763671875,0.7734375,0.50390625,1.21484375,0.072265625,-0.2734375,-0.068359375
2026-09-02T16:13:36.402042,0.62518310546875,0.29150390625,0.2724609375,0.6707763671875,0.7734375,0.50390625,1.21484375,0.072265625,-0.2734375,-0.068359375
2026-09-02T16:13:36.502028,0.62518310546875,0.29150390625,0.2724609375,0.6707763671875,0.7734375,0.50390625,1.21484375,0.072265625,-0.2734375,-0.068359375
2026-09-02T16:13:36.602170,0.62518310546875,0.29150390625,0.2724609375,0.6707763671875,0.7734375,0.50390625,1.21484375,0.072265625,-0.2734375,-0.068359375
2026-09-02T16:13:36.702397,0.62518310546875,0.29150390625,0.2724609375,0.6707763671875,0.7734375,0.50390625,1.21484375,0.072265625,-0.2734375,-0.068359375
2026-09-02T16:13:36.802386,0.62518310546875,0.29150390625,0.2724609375,0.6707763671875,0.7734375,0.50390625,1.21484375,0.072265625,-0.2734375,-0.068359375
2026-09-02T16:13:36.902548,0.62518310546875,0.29150390625,0.2724609375,0.6707763671875,0.7734375,0.50390625,1.21484375,0.072265625,-0.2734375,-0.068359375
2026-09-02T16:13:37.002767,0.62518310546875,0.29150390625,0.2724609375,0.6707763671875,0.7734375,0.50390625,1.21484375,0.072265625,-0.2734375,-0.068359375
2026-09-02T16:13:37.102869,0.62518310546875,0.29150390625,0.2724609375,0.6707763671875,0.7734375,0.50390625,1.21484375,0.072265625,-0.2734375,-0.068359375
2026-09-02T16:13:37.203086,0.62518310546875,0.29150390625,0.2724609375,0.6707763671875,0.7734375,0.50390625,1.21484375,0.072265625,-0.2734375,-0.068359375
2026-09-02T16:13:37.303142,0.62518310546875,0.29150390625,0.2724609375,0.6707763671875,0.7734375,0.50390625,1.21484375,0.072265625,-0.2734375,-0.068359375
2026-09-02T16:13:37.403164,0.62518310546875,0.29150390625,0.2724609375,0.6707763671875,0.7734375,0.50390625,1.21484375,0.072265625,-0.2734375,-0.068359375
2026-09-02T16:13:37.504053,0.62518310546875,0.29150390625,0.2724609375,0.6707763671875,0.7734375,0.50390625,1.21484375,0.072265625,-0.2734375,-0.068359375
2026-09-02T16:13:37.603422,0.62518310546875,0.29150390625,0.2724609375,0.6707763671875,0.7734375,0.50390625,1.21484375,0.072265625,-0.2734375,-0.068359375
2026-09-02T16:13:37.703506,0.62518310546875,0.29150390625,0.2724609375,0.6707763671875,0.7734375,0.50390625,1.21484375,0.072265625,-0.2734375,-0.068359375
2026-09-02T16:13:37.803626,0.62518310546875,0.29150390625,0.2724609375,0.6707763671875,0.7734375,0.50390625,1.21484375,0.072265625,-0.2734375,-0.068359375
2026-09-02T16:13:37.903963,0.62518310546875,0.29150390625,0.2724609375,0.6707763671875,0.7734375,0.50390625,1.21484375,0.072265625,-0.2734375,-0.068359375
2026-09-02T16:13:38.003886,0.62518310546875,0.29150390625,0.2724609375,0.6707763671875,0.7734375,0.50390625,1.21484375,0.072265625,-0.2734375,-0.068359375
2026-09-02T16:13:38.104017,0.62518310546875,0.29150390625,0.2724609375,0.6707763671875,0.7734375,0.50390625,1.21484375,0.072265625,-0.2734375,-0.068359375
2026-09-02T16:13:38.204295,0.62518310546875,0.29150390625,0.2724609375,0.6707763671875,0.7734375,0.50390625,1.21484375,0.072265625,-0.2734375,-0.068359375
2026-09-02T16:13:38.304330,0.62518310546875,0.29150390625,0.2724609375,0.6707763671875,0.7734375,0.50390625,1.21484375,0.072265625,-0.2734375,-0.068359375
2026-09-02T16:13:38.404591,0.62518310546875,0.29150390625,0.2724609375,0.6707763671875,0.7734375,0.50390625,1.21484375,0.072265625,-0.2734375,-0.068359375
2026-09-02T16:13:38.505690,0.62518310546875,0.29150390625,0.2724609375,0.6707763671875,0.7734375,0.50390625,1.21484375,0.072265625,-0.2734375,-0.068359375
2026-09-02T16:13:38.606450,0.62518310546875,0.29150390625,0.2724609375,0.6707763671875,0.7734375,0.50390625,1.21484375,0.072265625,-0.2734375,-0.068359375
2026-09-02T16:13:38.706349,0.62518310546875,0.29150390625,0.2724609375,0.6707763671875,0.7734375,0.50390625,1.21484375,0.072265625,-0.2734375,-0.068359375
2026-09-02T16:13:38.806758,0.62518310546875,0.29150390625,0.2724609375,0.6707763671875,0.7734375,0.50390625,1.21484375,0.072265625,-0.2734375,-0.068359375
2026-09-02T16:13:38.906409,0.62518310546875,0.29150390625,0.2724609375,0.6707763671875,0.7734375,0.50390625,1.21484375,0.072265625,-0.2734375,-0.068359375
2026-09-02T16:13:39.007120,0.62518310546875,0.29150390625,0.2724609375,0.6707763671875,0.7734375,0.50390625,1.21484375,0.072265625,-0.2734375,-0.068359375
2026-09-02T16:13:39.106567,0.62518310546875,0.29150390625,0.2724609375,0.6707763671875,0.7734375,0.50390625,1.21484375,0.072265625,-0.2734375,-0.068359375
2026-09-02T16:13:39.207423,0.62518310546875,0.29150390625,0.2724609375,0.6707763671875,0.7734375,0.50390625,1.21484375,0.072265625,-0.2734375,-0.068359375
2026-09-02T16:13:39.307563,0.62518310546875,0.29150390625,0.2724609375,0.6707763671875,0.7734375,0.50390625,1.21484375,0.072265625,-0.2734375,-0.068359375
2026-09-02T16:13:39.407924,0.62518310546875,0.29150390625,0.2724609375,0.6707763671875,0.7734375,0.50390625,1.21484375,0.072265625,-0.2734375,-0.068359375
2026-09-02T16:13:39.507499,0.62518310546875,0.29150390625,0.2724609375,0.6707763671875,0.7734375,0.50390625,1.21484375,0.072265625,-0.2734375,-0.068359375
2026-09-02T16:13:39.606124,0.62518310546875,0.29150390625,0.2724609375,0.6707763671875,0.7734375,0.50390625,1.21484375,0.072265625,-0.2734375,-0.068359375
2026-09-02T16:13:39.706255,0.62518310546875,0.29150390625,0.2724609375,0.6707763671875,0.7734375,0.50390625,1.21484375,0.072265625,-0.2734375,-0.068359375
2026-09-02T16:13:39.806366,0.62518310546875,0.29150390625,0.2724609375,0.6707763671875,0.7734375,0.50390625,1.21484375,0.072265625,-0.2734375,-0.068359375
2026-09-02T16:13:39.906636,0.62518310546875,0.29150390625,0.2724609375,0.6707763671875,0.7734375,0.50390625,1.21484375,0.072265625,-0.2734375,-0.068359375
2026-09-02T16:13:40.006567,0.62518310546875,0.29150390625,0.2724609375,0.6707763671875,0.7734375,0.50390625,1.21484375,0.072265625,-0.2734375,-0.068359375
2026-09-02T16:13:40.106730,0.62518310546875,0.29150390625,0.2724609375,0.6707763671875,0.7734375,0.50390625,1.21484375,0.072265625,-0.2734375,-0.068359375
2026-09-02T16:13:40.206740,0.62518310546875,0.29150390625,0.2724609375,0.6707763671875,0.7734375,0.50390625,1.21484375,0.072265625,-0.2734375,-0.068359375
2026-09-02T16:13:40.306820,0.62518310546875,0.29150390625,0.2724609375,0.6707763671875,0.7734375,0.50390625,1.21484375,0.072265625,-0.2734375,-0.068359375
2026-09-02T16:13:40.406976,0.62518310546875,0.29150390625,0.2724609375,0.6707763671875,0.7734375,0.50390625,1.21484375,0.072265625,-0.2734375,-0.068359375
2026-09-02T16:13:40.507095,0.62518310546875,0.29150390625,0.2724609375,0.6707763671875,0.7734375,0.50390625,1.21484375,0.072265625,-0.2734375,-0.068359375
2026-09-02T16:13:40.607292,0.62518310546875,0.29150390625,0.2724609375,0.6707763671875,0.7734375,0.50390625,1.21484375,0.072265625,-0.2734375,-0.068359375
2026-09-02T16:13:40.707273,0.62518310546875,0.29150390625,0.2724609375,0.6707763671875,0.7734375,0.50390625,1.21484375,0.072265625,-0.2734375,-0.068359375
2026-09-02T16:13:40.807389,0.62518310546875,0.29150390625,0.2724609375,0.6707763671875,0.7734375,0.50390625,1.21484375,0.072265625,-0.2734375,-0.068359375
2026-09-02T16:13:40.907492,0.62518310546875,0.29150390625,0.2724609375,0.6707763671875,0.7734375,0.50390625,1.21484375,0.072265625,-0.2734375,-0.068359375
2026-09-02T16:13:41.007734,0.62518310546875,0.29150390625,0.2724609375,0.6707763671875,0.7734375,0.50390625,1.21484375,0.072265625,-0.2734375,-0.068359375
2026-09-02T16:13:41.107621,0.62518310546875,0.29150390625,0.2724609375,0.6707763671875,0.7734375,0.50390625,1.21484375,0.072265625,-0.2734375,-0.068359375
2026-09-02T16:13:41.207763,0.62518310546875,0.29150390625,0.2724609375,0.6707763671875,0.7734375,0.50390625,1.21484375,0.072265625,-0.2734375,-0.068359375
2026-09-02T16:13:41.307820,0.62518310546875,0.29150390625,0.2724609375,0.6707763671875,0.7734375,0.50390625,1.21484375,0.072265625,-0.2734375,-0.068359375
2026-09-02T16:13:41.407920,0.62518310546875,0.29150390625,0.2724609375,0.6707763671875,0.7734375,0.50390625,1.21484375,0.072265625,-0.2734375,-0.068359375
2026-09-02T16:13:41.508073,0.62518310546875,0.29150390625,0.2724609375,0.6707763671875,0.7734375,0.50390625,1.21484375,0.072265625,-0.2734375,-0.068359375
2026-09-02T16:13:41.608180,0.62518310546875,0.29150390625,0.2724609375,0.6707763671875,0.7734375,0.50390625,1.21484375,0.072265625,-0.2734375,-0.068359375
2026-09-02T16:13:41.708388,0.62518310546875,0.29150390625,0.2724609375,0.6707763671875,0.7734375,0.50390625,1.21484375,0.072265625,-0.2734375,-0.068359375
2026-09-02T16:13:41.808397,0.62518310546875,0.29150390625,0.2724609375,0.6707763671875,0.7734375,0.50390625,1.21484375,0.072265625,-0.2734375,-0.068359375
2026-09-02T16:13:41.908507,0.62518310546875,0.29150390625,0.2724609375,0.6707763671875,0.7734375,0.50390625,1.21484375,0.072265625,-0.2734375,-0.068359375
2026-09-02T16:13:42.008596,0.62518310546875,0.29150390625,0.2724609375,0.6707763671875,0.7734375,0.50390625,1.21484375,0.072265625,-0.2734375,-0.068359375
2026-09-02T16:13:42.108919,0.62518310546875,0.29150390625,0.2724609375,0.6707763671875,0.7734375,0.50390625,1.21484375,0.072265625,-0.2734375,-0.068359375
2026-09-02T16:13:42.208801,0.62518310546875,0.29150390625,0.2724609375,0.6707763671875,0.7734375,0.50390625,1.21484375,0.072265625,-0.2734375,-0.068359375
2026-09-02T16:13:42.308868,0.62518310546875,0.29150390625,0.2724609375,0.6707763671875,0.7734375,0.50390625,1.21484375,0.072265625,-0.2734375,-0.068359375
2026-09-02T16:13:42.408998,0.62518310546875,0.29150390625,0.2724609375,0.6707763671875,0.7734375,0.50390625,1.21484375,0.072265625,-0.2734375,-0.068359375
2026-09-02T16:13:42.509072,0.62518310546875,0.29150390625,0.2724609375,0.6707763671875,0.7734375,0.50390625,1.21484375,0.072265625,-0.2734375,-0.068359375
2026-09-02T16:13:42.609242,0.62518310546875,0.29150390625,0.2724609375,0.6707763671875,0.7734375,0.50390625,1.21484375,0.072265625,-0.2734375,-0.068359375
2026-09-02T16:13:42.709300,0.62518310546875,0.29150390625,0.2724609375,0.6707763671875,0.7734375,0.50390625,1.21484375,0.072265625,-0.2734375,-0.068359375
2026-09-02T16:13:42.809486,0.62518310546875,0.29150390625,0.2724609375,0.6707763671875,0.7734375,0.50390625,1.21484375,0.072265625,-0.2734375,-0.068359375
2026-09-02T16:13:42.909509,0.62518310546875,0.29150390625,0.2724609375,0.6707763671875,0.7734375,0.50390625,1.21484375,0.072265625,-0.2734375,-0.068359375
2026-09-02T16:13:43.009720,0.62518310546875,0.29150390625,0.2724609375,0.6707763671875,0.7734375,0.50390625,1.21484375,0.072265625,-0.2734375,-0.068359375
2026-09-02T16:13:43.109706,0.62518310546875,0.29150390625,0.2724609375,0.6707763671875,0.7734375,0.50390625,1.21484375,0.072265625,-0.2734375,-0.068359375
2026-09-02T16:13:43.210019,0.62518310546875,0.29150390625,0.2724609375,0.6707763671875,0.7734375,0.50390625,1.21484375,0.072265625,-0.2734375,-0.068359375
2026-09-02T16:13:43.309949,0.62518310546875,0.29150390625,0.2724609375,0.6707763671875,0.7734375,0.50390625,1.21484375,0.072265625,-0.2734375,-0.068359375
2026-09-02T16:13:43.410028,0.62518310546875,0.29150390625,0.2724609375,0.6707763671875,0.7734375,0.50390625,1.21484375,0.072265625,-0.2734375,-0.068359375
2026-09-02T16:13:43.510233,0.62518310546875,0.29150390625,0.2724609375,0.6707763671875,0.7734375,0.50390625,1.21484375,0.072265625,-0.2734375,-0.068359375
2026-09-02T16:13:43.610532,0.62518310546875,0.29150390625,0.2724609375,0.6707763671875,0.7734375,0.50390625,1.21484375,0.072265625,-0.2734375,-0.068359375
2026-09-02T16:13:43.710644,0.62518310546875,0.29150390625,0.2724609375,0.6707763671875,0.7734375,0.50390625,1.21484375,0.072265625,-0.2734375,-0.068359375
2026-09-02T16:13:43.810564,0.62518310546875,0.29150390625,0.2724609375,0.6707763671875,0.7734375,0.50390625,1.21484375,0.072265625,-0.2734375,-0.068359375
2026-09-02T16:13:43.910695,0.62518310546875,0.29150390625,0.2724609375,0.6707763671875,0.7734375,0.50390625,1.21484375,0.072265625,-0.2734375,-0.068359375
2026-09-02T16:13:44.010852,0.62518310546875,0.29150390625,0.2724609375,0.6707763671875,0.7734375,0.50390625,1.21484375,0.072265625,-0.2734375,-0.068359375
2026-09-02T16:13:44.111127,0.62518310546875,0.29150390625,0.2724609375,0.6707763671875,0.7734375,0.50390625,1.21484375,0.072265625,-0.2734375,-0.068359375
2026-09-02T16:13:44.211068,0.62518310546875,0.29150390625,0.2724609375,0.6707763671875,0.7734375,0.50390625,1.21484375,0.072265625,-0.2734375,-0.068359375
2026-09-02T16:13:44.311304,0.62518310546875,0.29150390625,0.2724609375,0.6707763671875,0.7734375,0.50390625,1.21484375,0.072265625,-0.2734375,-0.068359375
2026-09-02T16:13:44.411282,0.62518310546875,0.29150390625,0.2724609375,0.6707763671875,0.7734375,0.50390625,1.21484375,0.072265625,-0.2734375,-0.068359375
2026-09-02T16:13:44.511389,0.62518310546875,0.29150390625,0.2724609375,0.6707763671875,0.7734375,0.50390625,1.21484375,0.072265625,-0.2734375,-0.068359375
2026-09-02T16:13:44.611573,0.62518310546875,0.29150390625,0.2724609375,0.6707763671875,0.7734375,0.50390625,1.21484375,0.072265625,-0.2734375,-0.068359375
2026-09-02T16:13:44.711684,0.62518310546875,0.29150390625,0.2724609375,0.6707763671875,0.7734375,0.50390625,1.21484375,0.072265625,-0.2734375,-0.068359375
2026-09-02T16:13:44.811736,0.62518310546875,0.29150390625,0.2724609375,0.6707763671875,0.7734375,0.50390625,1.21484375,0.072265625,-0.2734375,-0.068359375
2026-09-02T16:13:44.911870,0.62518310546875,0.29150390625,0.2724609375,0.6707763671875,0.7734375,0.50390625,1.21484375,0.072265625,-0.2734375,-0.068359375
2026-09-02T16:13:45.012050,0.62518310546875,0.29150390625,0.2724609375,0.6707763671875,0.7734375,0.50390625,1.21484375,0.072265625,-0.2734375,-0.068359375
2026-09-02T16:13:45.112239,0.62518310546875,0.29150390625,0.2724609375,0.6707763671875,0.7734375,0.50390625,1.21484375,0.072265625,-0.2734375,-0.068359375
2026-09-02T16:13:45.212405,0.62518310546875,0.29150390625,0.2724609375,0.6707763671875,0.7734375,0.50390625,1.21484375,0.072265625,-0.2734375,-0.068359375
2026-09-02T16:13:45.312394,0.62518310546875,0.29150390625,0.2724609375,0.6707763671875,0.7734375,0.50390625,1.21484375,0.072265625,-0.2734375,-0.068359375
2026-09-02T16:13:45.412419,0.62518310546875,0.29150390625,0.2724609375,0.6707763671875,0.7734375,0.50390625,1.21484375,0.072265625,-0.2734375,-0.068359375
2026-09-02T16:13:45.512745,0.62518310546875,0.29150390625,0.2724609375,0.6707763671875,0.7734375,0.50390625,1.21484375,0.072265625,-0.2734375,-0.068359375
2026-09-02T16:13:45.612789,0.62518310546875,0.29150390625,0.2724609375,0.6707763671875,0.7734375,0.50390625,1.21484375,0.072265625,-0.2734375,-0.068359375
2026-09-02T16:13:45.712761,0.62518310546875,0.29150390625,0.2724609375,0.6707763671875,0.7734375,0.50390625,1.21484375,0.072265625,-0.2734375,-0.068359375
2026-09-02T16:13:45.812934,0.62518310546875,0.29150390625,0.2724609375,0.6707763671875,0.7734375,0.50390625,1.21484375,0.072265625,-0.2734375,-0.068359375
2026-09-02T16:13:45.913054,0.62518310546875,0.29150390625,0.2724609375,0.6707763671875,0.7734375,0.50390625,1.21484375,0.072265625,-0.2734375,-0.068359375
2026-09-02T16:13:46.013171,0.62518310546875,0.29150390625,0.2724609375,0.6707763671875,0.7734375,0.50390625,1.21484375,0.072265625,-0.2734375,-0.068359375
2026-09-02T16:13:46.113273,0.62518310546875,0.29150390625,0.2724609375,0.6707763671875,0.7734375,0.50390625,1.21484375,0.072265625,-0.2734375,-0.068359375
2026-09-02T16:13:46.213373,0.62518310546875,0.29150390625,0.2724609375,0.6707763671875,0.7734375,0.50390625,1.21484375,0.072265625,-0.2734375,-0.068359375
2026-09-02T16:13:46.313464,0.62518310546875,0.29150390625,0.2724609375,0.6707763671875,0.7734375,0.50390625,1.21484375,0.072265625,-0.2734375,-0.068359375
2026-09-02T16:13:46.413568,0.62518310546875,0.29150390625,0.2724609375,0.6707763671875,0.7734375,0.50390625,1.21484375,0.072265625,-0.2734375,-0.068359375
2026-09-02T16:13:46.513755,0.62518310546875,0.29150390625,0.2724609375,0.6707763671875,0.7734375,0.50390625,1.21484375,0.072265625,-0.2734375,-0.068359375
2026-09-02T16:13:46.613842,0.62518310546875,0.29150390625,0.2724609375,0.6707763671875,0.7734375,0.50390625,1.21484375,0.072265625,-0.2734375,-0.068359375
2026-09-02T16:13:46.714286,0.62518310546875,0.29150390625,0.2724609375,0.6707763671875,0.7734375,0.50390625,1.21484375,0.072265625,-0.2734375,-0.068359375
2026-09-02T16:13:46.814070,0.62518310546875,0.29150390625,0.2724609375,0.6707763671875,0.7734375,0.50390625,1.21484375,0.072265625,-0.2734375,-0.068359375
2026-09-02T16:13:46.914200,0.62518310546875,0.29150390625,0.2724609375,0.6707763671875,0.7734375,0.50390625,1.21484375,0.072265625,-0.2734375,-0.068359375
2026-09-02T16:13:47.014487,0.62518310546875,0.29150390625,0.2724609375,0.6707763671875,0.7734375,0.50390625,1.21484375,0.072265625,-0.2734375,-0.068359375
2026-09-02T16:13:47.114470,0.62518310546875,0.29150390625,0.2724609375,0.6707763671875,0.7734375,0.50390625,1.21484375,0.072265625,-0.2734375,-0.068359375
2026-09-02T16:13:47.214670,0.62518310546875,0.29150390625,0.2724609375,0.6707763671875,0.7734375,0.50390625,1.21484375,0.072265625,-0.2734375,-0.068359375
2026-09-02T16:13:47.314610,0.62518310546875,0.29150390625,0.2724609375,0.6707763671875,0.7734375,0.50390625,1.21484375,0.072265625,-0.2734375,-0.068359375
2026-09-02T16:13:47.414772,0.62518310546875,0.29150390625,0.2724609375,0.6707763671875,0.7734375,0.50390625,1.21484375,0.072265625,-0.2734375,-0.068359375
2026-09-02T16:13:47.514935,0.62518310546875,0.29150390625,0.2724609375,0.6707763671875,0.7734375,0.50390625,1.21484375,0.072265625,-0.2734375,-0.068359375
2026-09-02T16:13:47.615000,0.62518310546875,0.29150390625,0.2724609375,0.6707763671875,0.7734375,0.50390625,1.21484375,0.072265625,-0.2734375,-0.068359375
2026-09-02T16:13:47.715111,0.62518310546875,0.29150390625,0.2724609375,0.6707763671875,0.7734375,0.50390625,1.21484375,0.072265625,-0.2734375,-0.068359375
2026-09-02T16:13:47.815267,0.62518310546875,0.29150390625,0.2724609375,0.6707763671875,0.7734375,0.50390625,1.21484375,0.072265625,-0.2734375,-0.068359375
2026-09-02T16:13:47.915377,0.62518310546875,0.29150390625,0.2724609375,0.6707763671875,0.7734375,0.50390625,1.21484375,0.072265625,-0.2734375,-0.068359375
2026-09-02T16:13:48.015521,0.62518310546875,0.29150390625,0.2724609375,0.6707763671875,0.7734375,0.50390625,1.21484375,0.072265625,-0.2734375,-0.068359375
2026-09-02T16:13:48.115683,0.62518310546875,0.29150390625,0.2724609375,0.6707763671875,0.7734375,0.50390625,1.21484375,0.072265625,-0.2734375,-0.068359375
2026-09-02T16:13:48.215735,0.62518310546875,0.29150390625,0.2724609375,0.6707763671875,0.7734375,0.50390625,1.21484375,0.072265625,-0.2734375,-0.068359375
2026-09-02T16:13:48.316125,0.62518310546875,0.29150390625,0.2724609375,0.6707763671875,0.7734375,0.50390625,1.21484375,0.072265625,-0.2734375,-0.068359375
2026-09-02T16:13:48.415955,0.62518310546875,0.29150390625,0.2724609375,0.6707763671875,0.7734375,0.50390625,1.21484375,0.072265625,-0.2734375,-0.068359375
2026-09-02T16:13:48.516303,0.62518310546875,0.29150390625,0.2724609375,0.6707763671875,0.7734375,0.50390625,1.21484375,0.072265625,-0.2734375,-0.068359375
2026-09-02T16:13:48.615306,0.62518310546875,0.29150390625,0.2724609375,0.6707763671875,0.7734375,0.50390625,1.21484375,0.072265625,-0.2734375,-0.068359375
2026-09-02T16:13:48.716329,0.62518310546875,0.29150390625,0.2724609375,0.6707763671875,0.7734375,0.50390625,1.21484375,0.072265625,-0.2734375,-0.068359375
2026-09-02T16:13:48.816527,0.62518310546875,0.29150390625,0.2724609375,0.6707763671875,0.7734375,0.50390625,1.21484375,0.072265625,-0.2734375,-0.068359375
2026-09-02T16:13:48.916610,0.62518310546875,0.29150390625,0.2724609375,0.6707763671875,0.7734375,0.50390625,1.21484375,0.072265625,-0.2734375,-0.068359375
2026-09-02T16:13:49.016665,0.62518310546875,0.29150390625,0.2724609375,0.6707763671875,0.7734375,0.50390625,1.21484375,0.072265625,-0.2734375,-0.068359375
2026-09-02T16:13:49.116803,0.62518310546875,0.29150390625,0.2724609375,0.6707763671875,0.7734375,0.50390625,1.21484375,0.072265625,-0.2734375,-0.068359375
2026-09-02T16:13:49.216864,0.62518310546875,0.29150390625,0.2724609375,0.6707763671875,0.7734375,0.50390625,1.21484375,0.072265625,-0.2734375,-0.068359375
2026-09-02T16:13:49.317289,0.62518310546875,0.29150390625,0.2724609375,0.6707763671875,0.7734375,0.50390625,1.21484375,0.072265625,-0.2734375,-0.068359375
2026-09-02T16:13:49.417119,0.62518310546875,0.29150390625,0.2724609375,0.6707763671875,0.7734375,0.50390625,1.21484375,0.072265625,-0.2734375,-0.068359375
2026-09-02T16:13:49.517210,0.62518310546875,0.29150390625,0.2724609375,0.6707763671875,0.7734375,0.50390625,1.21484375,0.072265625,-0.2734375,-0.068359375
2026-09-02T16:13:49.616878,0.62518310546875,0.29150390625,0.2724609375,0.6707763671875,0.7734375,0.50390625,1.21484375,0.072265625,-0.2734375,-0.068359375
2026-09-02T16:13:49.717534,0.62518310546875,0.29150390625,0.2724609375,0.6707763671875,0.7734375,0.50390625,1.21484375,0.072265625,-0.2734375,-0.068359375
2026-09-02T16:13:49.817612,0.62518310546875,0.29150390625,0.2724609375,0.6707763671875,0.7734375,0.50390625,1.21484375,0.072265625,-0.2734375,-0.068359375
2026-09-02T16:13:49.917799,0.62518310546875,0.29150390625,0.2724609375,0.6707763671875,0.7734375,0.50390625,1.21484375,0.072265625,-0.2734375,-0.068359375
2026-09-02T16:13:50.017866,0.62518310546875,0.29150390625,0.2724609375,0.6707763671875,0.7734375,0.50390625,1.21484375,0.072265625,-0.2734375,-0.068359375
2026-09-02T16:13:50.118026,0.62518310546875,0.29150390625,0.2724609375,0.6707763671875,0.7734375,0.50390625,1.21484375,0.072265625,-0.2734375,-0.068359375
2026-09-02T16:13:50.218379,0.62518310546875,0.29150390625,0.2724609375,0.6707763671875,0.7734375,0.50390625,1.21484375,0.072265625,-0.2734375,-0.068359375
2026-09-02T16:13:50.318133,0.62518310546875,0.29150390625,0.2724609375,0.6707763671875,0.7734375,0.50390625,1.21484375,0.072265625,-0.2734375,-0.068359375
2026-09-02T16:13:50.418344,0.62518310546875,0.29150390625,0.2724609375,0.6707763671875,0.7734375,0.50390625,1.21484375,0.072265625,-0.2734375,-0.068359375
2026-09-02T16:13:50.518386,0.62518310546875,0.29150390625,0.2724609375,0.6707763671875,0.7734375,0.50390625,1.21484375,0.072265625,-0.2734375,-0.068359375
2026-09-02T16:13:50.618339,0.62518310546875,0.29150390625,0.2724609375,0.6707763671875,0.7734375,0.50390625,1.21484375,0.072265625,-0.2734375,-0.068359375
2026-09-02T16:13:50.718690,0.62518310546875,0.29150390625,0.2724609375,0.6707763671875,0.7734375,0.50390625,1.21484375,0.072265625,-0.2734375,-0.068359375
2026-09-02T16:13:50.818740,0.62518310546875,0.29150390625,0.2724609375,0.6707763671875,0.7734375,0.50390625,1.21484375,0.072265625,-0.2734375,-0.068359375
2026-09-02T16:13:50.918829,0.62518310546875,0.29150390625,0.2724609375,0.6707763671875,0.7734375,0.50390625,1.21484375,0.072265625,-0.2734375,-0.068359375
2026-09-02T16:13:51.018951,0.62518310546875,0.29150390625,0.2724609375,0.6707763671875,0.7734375,0.50390625,1.21484375,0.072265625,-0.2734375,-0.068359375
2026-09-02T16:13:51.118573,0.62518310546875,0.29150390625,0.2724609375,0.6707763671875,0.7734375,0.50390625,1.21484375,0.072265625,-0.2734375,-0.068359375
2026-09-02T16:13:51.219240,0.62518310546875,0.29150390625,0.2724609375,0.6707763671875,0.7734375,0.50390625,1.21484375,0.072265625,-0.2734375,-0.068359375
2026-09-02T16:13:51.319553,0.62518310546875,0.29150390625,0.2724609375,0.6707763671875,0.7734375,0.50390625,1.21484375,0.072265625,-0.2734375,-0.068359375
2026-09-02T16:13:51.419226,0.62518310546875,0.29150390625,0.2724609375,0.6707763671875,0.7734375,0.50390625,1.21484375,0.072265625,-0.2734375,-0.068359375
2026-09-02T16:13:51.519793,0.62518310546875,0.29150390625,0.2724609375,0.6707763671875,0.7734375,0.50390625,1.21484375,0.072265625,-0.2734375,-0.068359375
2026-09-02T16:13:51.619441,0.62518310546875,0.29150390625,0.2724609375,0.6707763671875,0.7734375,0.50390625,1.21484375,0.072265625,-0.2734375,-0.068359375
2026-09-02T16:13:51.719789,0.62518310546875,0.29150390625,0.2724609375,0.6707763671875,0.7734375,0.50390625,1.21484375,0.072265625,-0.2734375,-0.068359375
2026-09-02T16:13:51.819907,0.62518310546875,0.29150390625,0.2724609375,0.6707763671875,0.7734375,0.50390625,1.21484375,0.072265625,-0.2734375,-0.068359375
2026-09-02T16:13:51.920074,0.62518310546875,0.29150390625,0.2724609375,0.6707763671875,0.7734375,0.50390625,1.21484375,0.072265625,-0.2734375,-0.068359375
2026-09-02T16:13:52.020794,0.62518310546875,0.29150390625,0.2724609375,0.6707763671875,0.7734375,0.50390625,1.21484375,0.072265625,-0.2734375,-0.068359375
2026-09-02T16:13:52.120385,0.62518310546875,0.29150390625,0.2724609375,0.6707763671875,0.7734375,0.50390625,1.21484375,0.072265625,-0.2734375,-0.068359375
2026-09-02T16:13:52.220534,0.62518310546875,0.29150390625,0.2724609375,0.6707763671875,0.7734375,0.50390625,1.21484375,0.072265625,-0.2734375,-0.068359375
2026-09-02T16:13:52.320485,0.62518310546875,0.29150390625,0.2724609375,0.6707763671875,0.7734375,0.50390625,1.21484375,0.072265625,-0.2734375,-0.068359375
2026-09-02T16:13:52.420325,0.62518310546875,0.29150390625,0.2724609375,0.6707763671875,0.7734375,0.50390625,1.21484375,0.072265625,-0.2734375,-0.068359375
2026-09-02T16:13:52.520689,0.62518310546875,0.29150390625,0.2724609375,0.6707763671875,0.7734375,0.50390625,1.21484375,0.072265625,-0.2734375,-0.068359375
2026-09-02T16:13:52.621052,0.62518310546875,0.29150390625,0.2724609375,0.6707763671875,0.7734375,0.50390625,1.21484375,0.072265625,-0.2734375,-0.068359375
2026-09-02T16:13:52.720906,0.62518310546875,0.29150390625,0.2724609375,0.6707763671875,0.7734375,0.50390625,1.21484375,0.072265625,-0.2734375,-0.068359375
2026-09-02T16:13:52.821032,0.62518310546875,0.29150390625,0.2724609375,0.6707763671875,0.7734375,0.50390625,1.21484375,0.072265625,-0.2734375,-0.068359375
2026-09-02T16:13:52.921093,0.62518310546875,0.29150390625,0.2724609375,0.6707763671875,0.7734375,0.50390625,1.21484375,0.072265625,-0.2734375,-0.068359375
2026-09-02T16:13:53.021248,0.62518310546875,0.29150390625,0.2724609375,0.6707763671875,0.7734375,0.50390625,1.21484375,0.072265625,-0.2734375,-0.068359375
2026-09-02T16:13:53.120832,0.62518310546875,0.29150390625,0.2724609375,0.6707763671875,0.7734375,0.50390625,1.21484375,0.072265625,-0.2734375,-0.068359375
2026-09-02T16:13:53.221446,0.62518310546875,0.29150390625,0.2724609375,0.6707763671875,0.7734375,0.50390625,1.21484375,0.072265625,-0.2734375,-0.068359375
2026-09-02T16:13:53.321492,0.62518310546875,0.29150390625,0.2724609375,0.6707763671875,0.7734375,0.50390625,1.21484375,0.072265625,-0.2734375,-0.068359375
2026-09-02T16:13:53.421187,0.62518310546875,0.29150390625,0.2724609375,0.6707763671875,0.7734375,0.50390625,1.21484375,0.072265625,-0.2734375,-0.068359375
2026-09-02T16:13:53.521736,0.62518310546875,0.29150390625,0.2724609375,0.6707763671875,0.7734375,0.50390625,1.21484375,0.072265625,-0.2734375,-0.068359375
2026-09-02T16:13:53.621824,0.62518310546875,0.29150390625,0.2724609375,0.6707763671875,0.7734375,0.50390625,1.21484375,0.072265625,-0.2734375,-0.068359375
2026-09-02T16:13:53.721993,0.62518310546875,0.29150390625,0.2724609375,0.6707763671875,0.7734375,0.50390625,1.21484375,0.072265625,-0.2734375,-0.068359375
2026-09-02T16:13:53.822050,0.62518310546875,0.29150390625,0.2724609375,0.6707763671875,0.7734375,0.50390625,1.21484375,0.072265625,-0.2734375,-0.068359375
2026-09-02T16:13:53.922176,0.62518310546875,0.29150390625,0.2724609375,0.6707763671875,0.7734375,0.50390625,1.21484375,0.072265625,-0.2734375,-0.068359375
2026-09-02T16:13:54.022243,0.62518310546875,0.29150390625,0.2724609375,0.6707763671875,0.7734375,0.50390625,1.21484375,0.072265625,-0.2734375,-0.068359375
2026-09-02T16:13:54.122219,0.62518310546875,0.29150390625,0.2724609375,0.6707763671875,0.7734375,0.50390625,1.21484375,0.072265625,-0.2734375,-0.068359375
2026-09-02T16:13:54.222418,0.62518310546875,0.29150390625,0.2724609375,0.6707763671875,0.7734375,0.50390625,1.21484375,0.072265625,-0.2734375,-0.068359375
2026-09-02T16:13:54.322690,0.62518310546875,0.29150390625,0.2724609375,0.6707763671875,0.7734375,0.50390625,1.21484375,0.072265625,-0.2734375,-0.068359375
2026-09-02T16:13:54.422657,0.62518310546875,0.29150390625,0.2724609375,0.6707763671875,0.7734375,0.50390625,1.21484375,0.072265625,-0.2734375,-0.068359375
2026-09-02T16:13:54.522798,0.62518310546875,0.29150390625,0.2724609375,0.6707763671875,0.7734375,0.50390625,1.21484375,0.072265625,-0.2734375,-0.068359375
2026-09-02T16:13:54.622816,0.62518310546875,0.29150390625,0.2724609375,0.6707763671875,0.7734375,0.50390625,1.21484375,0.072265625,-0.2734375,-0.068359375
2026-09-02T16:13:54.723012,0.62518310546875,0.29150390625,0.2724609375,0.6707763671875,0.7734375,0.50390625,1.21484375,0.072265625,-0.2734375,-0.068359375
2026-09-02T16:13:54.823043,0.62518310546875,0.29150390625,0.2724609375,0.6707763671875,0.7734375,0.50390625,1.21484375,0.072265625,-0.2734375,-0.068359375
2026-09-02T16:13:54.923319,0.62518310546875,0.29150390625,0.2724609375,0.6707763671875,0.7734375,0.50390625,1.21484375,0.072265625,-0.2734375,-0.068359375
2026-09-02T16:13:55.023361,0.62518310546875,0.29150390625,0.2724609375,0.6707763671875,0.7734375,0.50390625,1.21484375,0.072265625,-0.2734375,-0.068359375
2026-09-02T16:13:55.123507,0.62518310546875,0.29150390625,0.2724609375,0.6707763671875,0.7734375,0.50390625,1.21484375,0.072265625,-0.2734375,-0.068359375
2026-09-02T16:13:55.223526,0.62518310546875,0.29150390625,0.2724609375,0.6707763671875,0.7734375,0.50390625,1.21484375,0.072265625,-0.2734375,-0.068359375
2026-09-02T16:13:55.323797,0.62518310546875,0.29150390625,0.2724609375,0.6707763671875,0.7734375,0.50390625,1.21484375,0.072265625,-0.2734375,-0.068359375
2026-09-02T16:13:55.423167,0.62518310546875,0.29150390625,0.2724609375,0.6707763671875,0.7734375,0.50390625,1.21484375,0.072265625,-0.2734375,-0.068359375
2026-09-02T16:13:55.523963,0.62518310546875,0.29150390625,0.2724609375,0.6707763671875,0.7734375,0.50390625,1.21484375,0.072265625,-0.2734375,-0.068359375
2026-09-02T16:13:55.623933,0.62518310546875,0.29150390625,0.2724609375,0.6707763671875,0.7734375,0.50390625,1.21484375,0.072265625,-0.2734375,-0.068359375
2026-09-02T16:13:55.724074,0.62518310546875,0.29150390625,0.2724609375,0.6707763671875,0.7734375,0.50390625,1.21484375,0.072265625,-0.2734375,-0.068359375
2026-09-02T16:13:55.824125,0.62518310546875,0.29150390625,0.2724609375,0.6707763671875,0.7734375,0.50390625,1.21484375,0.072265625,-0.2734375,-0.068359375
2026-09-02T16:13:55.924290,0.62518310546875,0.29150390625,0.2724609375,0.6707763671875,0.7734375,0.50390625,1.21484375,0.072265625,-0.2734375,-0.068359375
2026-09-02T16:13:56.024335,0.62518310546875,0.29150390625,0.2724609375,0.6707763671875,0.7734375,0.50390625,1.21484375,0.072265625,-0.2734375,-0.068359375
2026-09-02T16:13:56.124464,0.62518310546875,0.29150390625,0.2724609375,0.6707763671875,0.7734375,0.50390625,1.21484375,0.072265625,-0.2734375,-0.068359375
2026-09-02T16:13:56.224525,0.62518310546875,0.29150390625,0.2724609375,0.6707763671875,0.7734375,0.50390625,1.21484375,0.072265625,-0.2734375,-0.068359375
2026-09-02T16:13:56.324682,0.62518310546875,0.29150390625,0.2724609375,0.6707763671875,0.7734375,0.50390625,1.21484375,0.072265625,-0.2734375,-0.068359375
2026-09-02T16:13:56.424758,0.62518310546875,0.29150390625,0.2724609375,0.6707763671875,0.7734375,0.50390625,1.21484375,0.072265625,-0.2734375,-0.068359375
2026-09-02T16:13:56.524931,0.62518310546875,0.29150390625,0.2724609375,0.6707763671875,0.7734375,0.50390625,1.21484375,0.072265625,-0.2734375,-0.068359375
2026-09-02T16:13:56.624934,0.62518310546875,0.29150390625,0.2724609375,0.6707763671875,0.7734375,0.50390625,1.21484375,0.072265625,-0.2734375,-0.068359375
2026-09-02T16:13:56.725093,0.62518310546875,0.29150390625,0.2724609375,0.6707763671875,0.7734375,0.50390625,1.21484375,0.072265625,-0.2734375,-0.068359375
2026-09-02T16:13:56.825183,0.62518310546875,0.29150390625,0.2724609375,0.6707763671875,0.7734375,0.50390625,1.21484375,0.072265625,-0.2734375,-0.068359375
2026-09-02T16:13:56.925335,0.62518310546875,0.29150390625,0.2724609375,0.6707763671875,0.7734375,0.50390625,1.21484375,0.072265625,-0.2734375,-0.068359375
2026-09-02T16:13:57.025420,0.62518310546875,0.29150390625,0.2724609375,0.6707763671875,0.7734375,0.50390625,1.21484375,0.072265625,-0.2734375,-0.068359375
2026-09-02T16:13:57.125538,0.62518310546875,0.29150390625,0.2724609375,0.6707763671875,0.7734375,0.50390625,1.21484375,0.072265625,-0.2734375,-0.068359375
2026-09-02T16:13:57.225569,0.62518310546875,0.29150390625,0.2724609375,0.6707763671875,0.7734375,0.50390625,1.21484375,0.072265625,-0.2734375,-0.068359375
2026-09-02T16:13:57.325897,0.62518310546875,0.29150390625,0.2724609375,0.6707763671875,0.7734375,0.50390625,1.21484375,0.072265625,-0.2734375,-0.068359375
2026-09-02T16:13:57.425798,0.62518310546875,0.29150390625,0.2724609375,0.6707763671875,0.7734375,0.50390625,1.21484375,0.072265625,-0.2734375,-0.068359375
2026-09-02T16:13:57.525971,0.62518310546875,0.29150390625,0.2724609375,0.6707763671875,0.7734375,0.50390625,1.21484375,0.072265625,-0.2734375,-0.068359375
2026-09-02T16:13:57.625992,0.62518310546875,0.29150390625,0.2724609375,0.6707763671875,0.7734375,0.50390625,1.21484375,0.072265625,-0.2734375,-0.068359375
2026-09-02T16:13:57.726178,0.62518310546875,0.29150390625,0.2724609375,0.6707763671875,0.7734375,0.50390625,1.21484375,0.072265625,-0.2734375,-0.068359375
2026-09-02T16:13:57.826513,0.62518310546875,0.29150390625,0.2724609375,0.6707763671875,0.7734375,0.50390625,1.21484375,0.072265625,-0.2734375,-0.068359375
2026-09-02T16:13:57.926426,0.62518310546875,0.29150390625,0.2724609375,0.6707763671875,0.7734375,0.50390625,1.21484375,0.072265625,-0.2734375,-0.068359375
2026-09-02T16:13:58.026579,0.62518310546875,0.29150390625,0.2724609375,0.6707763671875,0.7734375,0.50390625,1.21484375,0.072265625,-0.2734375,-0.068359375
2026-09-02T16:13:58.126847,0.62518310546875,0.29150390625,0.2724609375,0.6707763671875,0.7734375,0.50390625,1.21484375,0.072265625,-0.2734375,-0.068359375
2026-09-02T16:13:58.226773,0.62518310546875,0.29150390625,0.2724609375,0.6707763671875,0.7734375,0.50390625,1.21484375,0.072265625,-0.2734375,-0.068359375
2026-09-02T16:13:58.326824,0.62518310546875,0.29150390625,0.2724609375,0.6707763671875,0.7734375,0.50390625,1.21484375,0.072265625,-0.2734375,-0.068359375
