timestamp,quat_i,quat_j,quat_k,quat_real,accel_x,accel_y,accel_z,gyro_x,gyro_y,gyro_z
2026-09-07T15:02:56.788928,0.45306396484375,0.46160888671875,0.54412841796875,0.534423828125,0.0,0.0,0.0,0.0,0.0,0.0
2026-09-07T15:02:56.917139,0.45318603515625,0.4620361328125,0.5435791015625,0.534423828125,0.14453125,9.7734375,0.55859375,0.03515625,-0.0078125,-0.00390625
2026-09-07T15:02:57.006747,0.45391845703125,0.46282958984375,0.54229736328125,0.534423828125,-0.3203125,9.41796875,0.8125,0.013671875,-0.015625,-0.005859375
2026-09-07T15:02:57.115623,0.454345703125,0.46295166015625,0.54193115234375,0.534423828125,0.0546875,8.74609375,0.71875,0.01953125,-0.01171875,-0.015625
2026-09-07T15:02:57.213674,0.47589111328125,0.46875,0.53570556640625,0.51654052734375,-0.03125,8.57421875,0.51171875,-0.009765625,-0.0234375,0.0234375
2026-09-07T15:02:57.313730,0.477783203125,0.46826171875,0.53515625,0.51580810546875,0.265625,8.62890625,1.28515625,0.00390625,-0.025390625,0.01171875
2026-09-07T15:02:57.413603,0.47918701171875,0.46795654296875,0.5343017578125,0.5157470703125,0.52734375,7.7421875,1.0703125,0.021484375,-0.021484375,-0.0234375
2026-09-07T15:02:57.503488,0.48016357421875,0.4686279296875,0.53253173828125,0.5159912109375,0.2578125,7.34375,1.0,0.03515625,-0.021484375,-0.017578125
2026-09-07T15:02:57.615510,0.48077392578125,0.4688720703125,0.53167724609375,0.51605224609375,0.20703125,6.89453125,0.82421875,0.037109375,-0.0234375,0.001953125
2026-09-07T15:02:57.714953,0.4825439453125,0.46942138671875,0.5294189453125,0.5162353515625,0.015625,6.98046875,0.87109375,0.009765625,-0.029296875,0.009765625
2026-09-07T15:02:57.815062,0.48370361328125,0.46856689453125,0.52886962890625,0.51654052734375,0.12109375,6.90234375,0.6171875,-0.005859375,-0.033203125,0.015625
2026-09-07T15:02:57.914867,0.48480224609375,0.46710205078125,0.528564453125,0.51708984375,0.18359375,6.68359375,0.76953125,0.0,-0.033203125,0.013671875
2026-09-07T15:02:58.022867,0.4859619140625,0.4658203125,0.5281982421875,0.51751708984375,0.2421875,6.30078125,0.76953125,0.00390625,-0.029296875,0.017578125
2026-09-07T15:02:58.112685,0.4871826171875,0.4654541015625,0.52716064453125,0.51776123046875,0.41796875,4.96484375,1.140625,0.044921875,-0.025390625,-0.01171875
2026-09-07T15:02:58.223679,0.4886474609375,0.4659423828125,0.5255126953125,0.51763916015625,0.11328125,5.375,0.60546875,0.0390625,-0.0234375,0.00390625
2026-09-07T15:02:58.321994,0.49041748046875,0.46600341796875,0.52423095703125,0.5172119140625,0.05078125,4.9765625,0.26953125,0.0078125,-0.02734375,0.00390625
2026-09-07T15:02:58.422111,0.49151611328125,0.46539306640625,0.52349853515625,0.51751708984375,0.203125,5.1796875,0.4765625,-0.001953125,-0.033203125,-0.00390625
2026-09-07T15:02:58.513811,0.49224853515625,0.4644775390625,0.52276611328125,0.518310546875,0.00390625,4.62890625,0.359375,-0.00390625,-0.0390625,0.00390625
2026-09-07T15:02:58.624052,0.4935302734375,0.46246337890625,0.52191162109375,0.519775390625,0.140625,4.02734375,0.734375,-0.021484375,-0.0390625,0.009765625
2026-09-07T15:02:58.722204,0.49383544921875,0.46173095703125,0.5216064453125,0.5203857421875,0.43359375,3.20703125,0.82421875,-0.015625,-0.0390625,0.001953125
2026-09-07T15:02:58.821256,0.494384765625,0.46075439453125,0.5206298828125,0.521728515625,0.203125,3.5703125,0.91015625,0.0078125,-0.04296875,-0.015625
2026-09-07T15:02:58.907596,0.4954833984375,0.4595947265625,0.51959228515625,0.52276611328125,-0.00390625,3.68359375,0.87890625,-0.00390625,-0.044921875,0.001953125
2026-09-07T15:02:59.023434,0.4976806640625,0.45794677734375,0.51763916015625,0.5240478515625,0.03515625,2.953125,1.12109375,0.01953125,-0.04296875,-0.00390625
2026-09-07T15:02:59.121554,0.4986572265625,0.45794677734375,0.51654052734375,0.5242919921875,0.140625,2.625,0.9453125,0.03515625,-0.048828125,0.0078125
2026-09-07T15:02:59.222154,0.502197265625,0.45745849609375,0.513427734375,0.5242919921875,0.05078125,2.96484375,0.43359375,0.025390625,-0.046875,0.013671875
2026-09-07T15:02:59.320811,0.50323486328125,0.457275390625,0.51251220703125,0.5244140625,0.1875,2.39453125,0.5390625,0.02734375,-0.046875,0.0
2026-09-07T15:02:59.422181,0.50531005859375,0.45562744140625,0.5106201171875,0.525634765625,-0.01171875,2.8359375,0.5859375,0.0078125,-0.044921875,0.0
2026-09-07T15:02:59.521969,0.5067138671875,0.4541015625,0.5096435546875,0.52655029296875,0.01171875,2.47265625,0.4453125,-0.013671875,-0.046875,0.013671875
2026-09-07T15:02:59.622039,0.5079345703125,0.4525146484375,0.50872802734375,0.52764892578125,0.03125,2.390625,0.53125,-0.009765625,-0.048828125,0.013671875
2026-09-07T15:02:59.721977,0.5091552734375,0.45111083984375,0.50775146484375,0.5286865234375,-0.05859375,2.16796875,0.57421875,-0.01171875,-0.04296875,-0.009765625
2026-09-07T15:02:59.821192,0.499755859375,0.44256591796875,0.51373291015625,0.5389404296875,0.30859375,-0.625,0.046875,0.0,-0.044921875,-0.0078125
2026-09-07T15:02:59.921534,0.4920654296875,0.440673828125,0.51348876953125,0.5406494140625,-0.0703125,0.16796875,-0.16015625,0.0078125,-0.041015625,-0.001953125
2026-09-07T15:03:00.021506,0.4998779296875,0.438720703125,0.51324462890625,0.54241943359375,0.21484375,-0.26953125,-0.34375,-0.02734375,-0.037109375,-0.015625
2026-09-07T15:03:00.122383,0.5,0.43707275390625,0.5128173828125,0.54400634765625,0.05078125,0.015625,-0.16796875,-0.02734375,-0.03515625,-0.01171875
2026-09-07T15:03:00.222586,0.50079345703125,0.43524169921875,0.512451171875,0.54510498046875,-0.03125,-0.2890625,0.0,0.0,-0.037109375,-0.00390625
2026-09-07T15:03:00.319170,0.5015869140625,0.4337158203125,0.5118408203125,0.54620361328125,0.14453125,-0.18359375,0.30078125,-0.015625,-0.04296875,-0.001953125
2026-09-07T15:03:00.423183,0.50225830078125,0.43206787109375,0.51141357421875,0.54730224609375,-0.26953125,1.00390625,0.015625,0.0,-0.033203125,-0.0078125
2026-09-07T15:03:00.523996,0.50335693359375,0.4302978515625,0.51104736328125,0.5479736328125,0.18359375,-1.0625,0.45703125,0.03515625,-0.044921875,0.00390625
2026-09-07T15:03:00.623286,0.50433349609375,0.42901611328125,0.51019287109375,0.5489501953125,-0.01171875,0.39453125,-0.09375,-0.025390625,-0.03515625,-0.02734375
2026-09-07T15:03:00.724593,0.50543212890625,0.42718505859375,0.509765625,0.54974365234375,0.06640625,0.171875,0.390625,-0.013671875,-0.037109375,0.005859375
2026-09-07T15:03:00.821286,0.506591796875,0.4251708984375,0.50946044921875,0.55047607421875,0.3203125,-0.2109375,-0.26953125,-0.017578125,-0.041015625,0.01171875
2026-09-07T15:03:00.923910,0.50689697265625,0.4234619140625,0.50921630859375,0.55181884765625,0.234375,0.3046875,-0.19140625,-0.0390625,-0.03125,-0.0078125
2026-09-07T15:03:01.023837,0.50732421875,0.4219970703125,0.50872802734375,0.552978515625,0.00390625,-0.328125,0.16796875,-0.0234375,-0.03515625,-0.005859375
2026-09-07T15:03:01.125573,0.5086669921875,0.420166015625,0.50848388671875,0.5533447265625,-0.42578125,0.26171875,-0.30078125,0.005859375,-0.037109375,0.009765625
2026-09-07T15:03:01.220491,0.51019287109375,0.4188232421875,0.50799560546875,0.55340576171875,0.46484375,-0.359375,0.67578125,0.015625,-0.041015625,0.009765625
2026-09-07T15:03:01.321200,0.51153564453125,0.41796875,0.507080078125,0.5535888671875,0.046875,-0.15234375,-0.19140625,0.01171875,-0.029296875,-0.015625
2026-09-07T15:03:01.421636,0.51275634765625,0.41680908203125,0.5064697265625,0.55389404296875,-0.04296875,-0.37109375,-0.4453125,0.0078125,-0.029296875,-0.01953125
2026-09-07T15:03:01.519675,0.5135498046875,0.4156494140625,0.505859375,0.55462646484375,-0.03515625,-0.1796875,-0.0234375,-0.005859375,-0.033203125,-0.00390625
2026-09-07T15:03:01.622012,0.5145263671875,0.41473388671875,0.5050048828125,0.55517578125,-0.05078125,0.02734375,-0.2890625,-0.009765625,-0.029296875,-0.021484375
2026-09-07T15:03:01.722455,0.515869140625,0.41363525390625,0.50433349609375,0.55535888671875,0.0859375,0.36328125,-0.01171875,-0.001953125,-0.033203125,-0.009765625
2026-09-07T15:03:01.822464,0.51690673828125,0.41253662109375,0.5037841796875,0.55572509765625,-0.12109375,0.33203125,0.0234375,-0.025390625,-0.029296875,0.013671875
2026-09-07T15:03:01.920460,0.51812744140625,0.4124755859375,0.50238037109375,0.555908203125,0.09375,0.0625,-0.19140625,0.005859375,-0.029296875,-0.009765625
2026-09-07T15:03:02.021591,0.5194091796875,0.412109375,0.501220703125,0.5560302734375,-0.2421875,0.5625,0.22265625,0.005859375,-0.03125,-0.01171875
2026-09-07T15:03:02.122052,0.52056884765625,0.410888671875,0.50091552734375,0.55615234375,-0.25,0.1640625,-0.1953125,-0.00390625,-0.02734375,0.005859375
2026-09-07T15:03:02.218326,0.5216064453125,0.41046142578125,0.5,0.5562744140625,0.32421875,-0.3046875,-0.28125,-0.01171875,-0.025390625,-0.001953125
2026-09-07T15:03:02.321141,0.52264404296875,0.4100341796875,0.49908447265625,0.55645751953125,-0.01171875,0.56640625,-0.01953125,-0.00390625,-0.021484375,-0.00390625
2026-09-07T15:03:02.421800,0.52459716796875,0.40985107421875,0.497802734375,0.55584716796875,0.0703125,0.0078125,-0.2109375,-0.01953125,-0.0234375,0.005859375
2026-09-07T15:03:02.521971,0.52557373046875,0.41009521484375,0.49639892578125,0.5560302734375,0.35546875,-0.7890625,0.1953125,-0.0078125,-0.01953125,-0.015625
2026-09-07T15:03:02.621213,0.5263671875,0.41033935546875,0.4949951171875,0.556396484375,-0.04296875,-0.5234375,-0.09375,0.0,-0.017578125,-0.029296875
2026-09-07T15:03:02.713794,0.52764892578125,0.40960693359375,0.49432373046875,0.5562744140625,-0.2734375,0.2578125,-0.1015625,0.009765625,-0.021484375,-0.005859375
2026-09-07T15:03:02.821677,0.52935791015625,0.40863037109375,0.49395751953125,0.55572509765625,0.1796875,0.65234375,0.07421875,0.0234375,-0.02734375,0.033203125
2026-09-07T15:03:02.921535,0.53045654296875,0.40802001953125,0.493408203125,0.55560302734375,0.234375,0.359375,-0.1640625,0.005859375,-0.021484375,0.017578125
2026-09-07T15:03:03.021837,0.53057861328125,0.4072265625,0.4930419921875,0.55633544921875,0.1328125,0.28125,-0.5390625,-0.01171875,-0.017578125,-0.005859375
2026-09-07T15:03:03.121813,0.5311279296875,0.40692138671875,0.49224853515625,0.55682373046875,0.21484375,-0.234375,-0.32421875,-0.03515625,-0.013671875,-0.017578125
2026-09-07T15:03:03.216083,0.5322265625,0.40704345703125,0.490966796875,0.5567626953125,-0.08984375,-0.4296875,-0.0234375,-0.044921875,-0.017578125,-0.02734375
2026-09-07T15:03:03.321103,0.5330810546875,0.406494140625,0.490478515625,0.5567626953125,-0.3359375,0.390625,-0.421875,-0.05078125,-0.01171875,-0.013671875
2026-09-07T15:03:03.421764,0.53399658203125,0.406494140625,0.48974609375,0.5565185546875,0.03515625,-0.3984375,0.14453125,-0.04296875,-0.0078125,0.01171875
2026-09-07T15:03:03.522034,0.53399658203125,0.406982421875,0.48895263671875,0.55694580078125,0.00390625,0.26953125,-0.046875,-0.013671875,-0.001953125,-0.021484375
2026-09-07T15:03:03.621970,0.5341796875,0.4068603515625,0.4886474609375,0.55706787109375,-0.3203125,0.125,-0.16015625,-0.00390625,-0.0078125,-0.005859375
2026-09-07T15:03:03.714154,0.53485107421875,0.4072265625,0.48797607421875,0.55670166015625,0.2109375,-0.46484375,0.0234375,0.015625,-0.0078125,0.005859375
2026-09-07T15:03:03.823675,0.535400390625,0.40802001953125,0.48681640625,0.556640625,0.2734375,-0.08203125,-0.0390625,0.009765625,-0.005859375,-0.009765625
2026-09-07T15:03:03.923565,0.53582763671875,0.4083251953125,0.48614501953125,0.556640625,-0.09765625,0.09375,-0.4375,-0.00390625,-0.00390625,-0.00390625
2026-09-07T15:03:04.021948,0.53656005859375,0.40887451171875,0.48516845703125,0.556396484375,-0.07421875,-0.14453125,-0.06640625,-0.00390625,-0.0078125,0.005859375
2026-09-07T15:03:04.130613,0.537109375,0.40985107421875,0.4840087890625,0.55615234375,-0.00390625,-0.07421875,-0.01171875,0.0,-0.005859375,-0.005859375
2026-09-07T15:03:04.219108,0.537841796875,0.41033935546875,0.48333740234375,0.5556640625,-0.00390625,0.2421875,0.02734375,-0.01953125,-0.005859375,0.00390625
2026-09-07T15:03:04.319864,0.53900146484375,0.41107177734375,0.48236083984375,0.55474853515625,0.3203125,-0.0390625,0.05859375,-0.005859375,-0.00390625,0.005859375
2026-09-07T15:03:04.419487,0.53961181640625,0.4117431640625,0.48150634765625,0.55450439453125,0.1328125,-0.23046875,-0.15625,-0.033203125,0.001953125,-0.017578125
2026-09-07T15:03:04.519723,0.54022216796875,0.412353515625,0.48065185546875,0.55413818359375,-0.1875,0.23046875,-0.296875,-0.013671875,-0.00390625,-0.00390625
2026-09-07T15:03:04.619590,0.54046630859375,0.41229248046875,0.48052978515625,0.55413818359375,-0.01171875,-0.33203125,-0.05859375,-0.005859375,-0.00390625,0.015625
2026-09-07T15:03:04.719352,0.5404052734375,0.4130859375,0.47955322265625,0.55438232421875,0.01171875,-0.8046875,0.1171875,0.01171875,-0.25390625,-0.03125
2026-09-07T15:03:04.819568,0.5401611328125,0.41412353515625,0.47845458984375,0.5548095703125,-0.18359375,0.01171875,-0.140625,-0.015625,0.0,-0.01171875
2026-09-07T15:03:04.919653,0.54022216796875,0.414794921875,0.47772216796875,0.554931640625,-0.0703125,0.1875,0.125,0.0078125,-0.00390625,0.0
2026-09-07T15:03:05.020274,0.54022216796875,0.41552734375,0.476806640625,0.55511474609375,0.015625,0.1484375,-0.06640625,0.0,-0.00390625,-0.005859375
2026-09-07T15:03:05.119828,0.53955078125,0.41644287109375,0.4759521484375,0.55584716796875,-1.6171875,3.0234375,0.2421875,0.013671875,0.001953125,-0.056640625
2026-09-07T15:03:05.312919,0.5408935546875,0.415771484375,0.4759521484375,0.5550537109375,1.01171875,0.04296875,-0.25,-0.01171875,-0.001953125,0.021484375
2026-09-07T15:03:05.419878,0.54083251953125,0.41552734375,0.47607421875,0.55517578125,-0.0703125,0.7734375,-0.5625,-0.0390625,-0.001953125,0.017578125
2026-09-07T15:03:05.519875,0.54046630859375,0.41571044921875,0.47564697265625,0.55572509765625,0.3671875,0.10546875,-0.04296875,-0.013671875,-0.001953125,-0.0078125
2026-09-07T15:03:05.619554,0.53985595703125,0.416015625,0.47515869140625,0.5565185546875,-0.30078125,-0.0390625,-0.171875,-0.037109375,-0.00390625,0.001953125
2026-09-07T15:03:05.727230,0.53948974609375,0.41571044921875,0.4752197265625,0.55706787109375,-0.14453125,0.06640625,0.28125,-0.021484375,-0.005859375,0.017578125
2026-09-07T15:03:05.818603,0.5396728515625,0.41583251953125,0.47491455078125,0.5570068359375,0.07421875,-0.234375,0.203125,0.0078125,0.0,-0.015625
2026-09-07T15:03:05.926697,0.53912353515625,0.4202880859375,0.47064208984375,0.557861328125,-0.08203125,0.12109375,0.11328125,0.0078125,0.001953125,-0.025390625
2026-09-07T15:03:06.018593,0.5390625,0.42120361328125,0.4697265625,0.5579833984375,-0.25,0.33984375,0.01953125,0.001953125,-0.00390625,0.025390625
2026-09-07T15:03:06.126284,0.53936767578125,0.42138671875,0.46923828125,0.55792236328125,0.31640625,0.5390625,-0.2265625,0.01171875,-0.0078125,0.025390625
2026-09-07T15:03:06.225955,0.53961181640625,0.4208984375,0.46942138671875,0.55792236328125,0.1875,0.62109375,0.1484375,-0.013671875,-0.001953125,0.0078125
2026-09-07T15:03:06.315824,0.53936767578125,0.42071533203125,0.46942138671875,0.558349609375,-0.01171875,0.56640625,0.40234375,-0.009765625,-0.009765625,0.021484375
2026-09-07T15:03:06.427404,0.53924560546875,0.42034912109375,0.469482421875,0.55865478515625,-0.05078125,-0.20703125,-0.05078125,-0.0078125,-0.00390625,0.0078125
2026-09-07T15:03:06.526028,0.538818359375,0.420166015625,0.469482421875,0.5592041015625,-0.2890625,0.05078125,-0.125,-0.015625,-0.005859375,0.005859375
2026-09-07T15:03:06.627392,0.53826904296875,0.41986083984375,0.4696044921875,0.559814453125,0.21875,-0.8828125,0.2421875,-0.025390625,-0.001953125,0.01171875
2026-09-07T15:03:06.728591,0.5380859375,0.41973876953125,0.46954345703125,0.56024169921875,0.27734375,-1.0546875,-0.2265625,0.0,-0.00390625,-0.017578125
2026-09-07T15:03:06.826770,0.53778076171875,0.42059326171875,0.46856689453125,0.5606689453125,-0.03515625,-0.6875,-0.14453125,0.009765625,0.001953125,-0.02734375
2026-09-07T15:03:06.928096,0.53765869140625,0.42138671875,0.46783447265625,0.560791015625,-0.2421875,-0.140625,-0.09765625,-0.009765625,0.0,0.0078125
2026-09-07T15:03:07.028255,0.53778076171875,0.4219970703125,0.46722412109375,0.56072998046875,0.01953125,0.1171875,-0.13671875,0.021484375,-0.001953125,-0.0078125
2026-09-07T15:03:07.129483,0.53778076171875,0.423095703125,0.46600341796875,0.5609130859375,0.01171875,0.24609375,0.07421875,0.009765625,-0.005859375,-0.013671875
2026-09-07T15:03:07.229295,0.5377197265625,0.42364501953125,0.46527099609375,0.56121826171875,0.08203125,0.296875,0.28125,0.015625,-0.0078125,0.00390625
2026-09-07T15:03:07.329361,0.5380859375,0.423828125,0.46478271484375,0.56109619140625,0.37109375,-0.22265625,0.140625,0.02734375,-0.0078125,-0.009765625
2026-09-07T15:03:07.428858,0.53851318359375,0.4241943359375,0.46405029296875,0.56097412109375,-0.05078125,0.44921875,-0.01953125,0.0234375,-0.00390625,-0.001953125
2026-09-07T15:03:07.528807,0.53900146484375,0.42425537109375,0.46368408203125,0.56072998046875,0.05078125,-0.08984375,0.21875,0.037109375,-0.0078125,0.005859375
2026-09-07T15:03:07.629832,0.53985595703125,0.42413330078125,0.46343994140625,0.56024169921875,0.140625,0.125,-0.12109375,0.033203125,-0.005859375,-0.013671875
2026-09-07T15:03:07.729430,0.54034423828125,0.42437744140625,0.46295166015625,0.55999755859375,-0.11328125,0.4453125,-0.1171875,0.015625,-0.00390625,0.00390625
2026-09-07T15:03:07.829166,0.54083251953125,0.424072265625,0.4630126953125,0.55975341796875,-0.234375,0.23828125,0.14453125,0.015625,-0.009765625,0.005859375
2026-09-07T15:03:07.929092,0.54132080078125,0.4234619140625,0.463134765625,0.5595703125,0.046875,0.0625,-0.171875,0.009765625,-0.005859375,-0.001953125
2026-09-07T15:03:08.029699,0.541748046875,0.423095703125,0.4632568359375,0.55938720703125,0.0703125,0.12890625,0.01953125,-0.0078125,0.0,0.005859375
2026-09-07T15:03:08.129673,0.5421142578125,0.422607421875,0.4637451171875,0.55902099609375,0.15234375,-0.0859375,0.05078125,-0.015625,0.001953125,0.001953125
2026-09-07T15:03:08.221523,0.54248046875,0.422119140625,0.4642333984375,0.55859375,-0.0390625,0.14453125,-0.16015625,-0.00390625,0.005859375,-0.015625
2026-09-07T15:03:08.328879,0.542724609375,0.42230224609375,0.46417236328125,0.55828857421875,-0.22265625,0.13671875,-0.0859375,-0.00390625,0.005859375,-0.009765625
2026-09-07T15:03:08.429741,0.543212890625,0.4222412109375,0.46435546875,0.5577392578125,-0.0390625,0.15234375,0.07421875,0.015625,-0.001953125,0.0
2026-09-07T15:03:08.529464,0.5438232421875,0.421875,0.46466064453125,0.55706787109375,0.03125,-0.109375,-0.0859375,0.015625,0.00390625,-0.0078125
2026-09-07T15:03:08.629094,0.544189453125,0.42205810546875,0.46466064453125,0.556640625,-0.20703125,0.26953125,-0.015625,-0.009765625,0.00390625,0.001953125
2026-09-07T15:03:08.721524,0.53668212890625,0.4219970703125,0.46484375,0.54840087890625,0.046875,-0.046875,0.0625,-0.259765625,0.00390625,0.001953125
2026-09-07T15:03:08.821294,0.544677734375,0.421875,0.46502685546875,0.55596923828125,0.11328125,-0.0078125,0.08984375,0.00390625,0.001953125,-0.255859375
2026-09-07T15:03:08.920698,0.54473876953125,0.42218017578125,0.4647216796875,0.55596923828125,0.12109375,-0.4921875,0.23828125,0.0,0.0,-0.00390625
2026-09-07T15:03:09.022445,0.5447998046875,0.42218017578125,0.4647216796875,0.555908203125,-0.12109375,-0.40625,0.21484375,0.017578125,-0.001953125,-0.009765625
2026-09-07T15:03:09.129792,0.54498291015625,0.42279052734375,0.464111328125,0.55572509765625,-0.13671875,-0.3125,0.12109375,0.03515625,-0.00390625,-0.025390625
2026-09-07T15:03:09.230250,0.54510498046875,0.4232177734375,0.4637451171875,0.55560302734375,-0.28125,0.1640625,-0.0546875,0.017578125,0.001953125,0.005859375
2026-09-07T15:03:09.330207,0.54547119140625,0.4234619140625,0.46356201171875,0.55523681640625,0.30859375,0.0390625,-0.0234375,0.009765625,-0.00390625,0.001953125
2026-09-07T15:03:09.429628,0.54541015625,0.4234619140625,0.4635009765625,0.5552978515625,0.0625,0.5703125,0.12890625,-0.025390625,0.0,-0.00390625
2026-09-07T15:03:09.528507,0.54486083984375,0.42352294921875,0.4635009765625,0.55584716796875,0.03125,0.09765625,-0.17578125,-0.021484375,-0.001953125,0.005859375
2026-09-07T15:03:09.637852,0.5445556640625,0.4229736328125,0.46380615234375,0.5562744140625,0.35546875,-0.33984375,0.375,-0.001953125,-0.00390625,0.00390625
2026-09-07T15:03:09.729022,0.54449462890625,0.4227294921875,0.4638671875,0.55645751953125,0.25390625,-0.26953125,0.15234375,-0.013671875,0.0,0.0
2026-09-07T15:03:09.839008,0.5443115234375,0.4228515625,0.46380615234375,0.55657958984375,-0.44140625,0.328125,0.2421875,0.001953125,-0.00390625,0.01953125
2026-09-07T15:03:09.937107,0.54443359375,0.4224853515625,0.464111328125,0.5565185546875,-0.08984375,-0.44140625,0.2890625,0.005859375,-0.005859375,0.015625
2026-09-07T15:03:10.037444,0.5445556640625,0.422607421875,0.46392822265625,0.55645751953125,0.15625,-0.37890625,0.16796875,-0.009765625,-0.001953125,0.00390625
2026-09-07T15:03:10.137091,0.54437255859375,0.4227294921875,0.4637451171875,0.556640625,-0.08203125,-0.140625,-0.2109375,0.0,-0.00390625,0.021484375
2026-09-07T15:03:10.237258,0.54449462890625,0.42230224609375,0.4639892578125,0.55670166015625,0.1796875,-0.09375,-0.00390625,0.001953125,-0.005859375,-0.00390625
2026-09-07T15:03:10.327064,0.544189453125,0.422607421875,0.46356201171875,0.55706787109375,0.125,-0.4921875,-0.21484375,-0.013671875,0.0,-0.009765625
2026-09-07T15:03:10.424421,0.54400634765625,0.4228515625,0.46337890625,0.55731201171875,-0.16015625,-0.109375,-0.1484375,-0.021484375,0.001953125,0.00390625
2026-09-07T15:03:10.527577,0.54339599609375,0.42303466796875,0.46331787109375,0.55780029296875,0.203125,-0.23046875,0.20703125,-0.017578125,0.00390625,-0.01171875
2026-09-07T15:03:10.628361,0.54290771484375,0.42352294921875,0.46295166015625,0.55816650390625,0.078125,-0.1953125,-0.078125,-0.005859375,0.00390625,-0.021484375
2026-09-07T15:03:10.727247,0.54248046875,0.423828125,0.46270751953125,0.55853271484375,-0.01171875,0.546875,-0.23046875,-0.00390625,0.001953125,0.005859375
2026-09-07T15:03:10.827850,0.54266357421875,0.4234619140625,0.46307373046875,0.558349609375,0.01953125,0.18359375,0.4453125,0.015625,0.0,0.00390625
2026-09-07T15:03:10.923434,0.5430908203125,0.4237060546875,0.46282958984375,0.55792236328125,-0.12109375,0.22265625,0.19140625,0.009765625,0.00390625,-0.01171875
2026-09-07T15:03:11.023043,0.54296875,0.42449951171875,0.46234130859375,0.55792236328125,-0.45703125,0.16796875,-0.1171875,-0.005859375,0.00390625,0.00390625
2026-09-07T15:03:11.125202,0.54290771484375,0.42462158203125,0.46240234375,0.5577392578125,0.09765625,-0.5078125,-0.16015625,0.015625,0.0,-0.001953125
2026-09-07T15:03:11.227322,0.5430908203125,0.4254150390625,0.46173095703125,0.55755615234375,-0.0390625,-0.046875,0.046875,0.0078125,0.0,-0.013671875
2026-09-07T15:03:11.334812,0.54302978515625,0.426513671875,0.46075439453125,0.5576171875,-0.27734375,0.19140625,0.0546875,0.0,0.0,0.0078125
2026-09-07T15:03:11.425878,0.5433349609375,0.427490234375,0.459716796875,0.557373046875,0.0078125,-0.19921875,0.23828125,0.025390625,0.0,-0.005859375
2026-09-07T15:03:11.533176,0.54327392578125,0.42828369140625,0.458984375,0.5574951171875,0.16015625,-0.16015625,-0.109375,0.01171875,0.001953125,-0.005859375
2026-09-07T15:03:11.626340,0.54290771484375,0.43011474609375,0.457275390625,0.557861328125,-0.15234375,-0.01953125,0.0703125,0.0,0.001953125,-0.00390625
2026-09-07T15:03:11.734919,0.54290771484375,0.43048095703125,0.4569091796875,0.55780029296875,0.0546875,0.1015625,0.0859375,0.037109375,0.00390625,-0.01171875
2026-09-07T15:03:11.833733,0.543212890625,0.431884765625,0.4556884765625,0.55743408203125,0.18359375,-0.1015625,-0.16015625,0.013671875,0.00390625,0.001953125
2026-09-07T15:03:11.932918,0.543701171875,0.432373046875,0.4554443359375,0.5567626953125,-0.078125,0.2109375,0.0078125,0.01953125,0.00390625,0.01953125
2026-09-07T15:03:12.031740,0.54425048828125,0.43267822265625,0.45538330078125,0.5560302734375,0.16015625,0.30859375,0.078125,0.001953125,0.01171875,-0.013671875
2026-09-07T15:03:12.133094,0.5443115234375,0.433349609375,0.4552001953125,0.55560302734375,0.15625,-0.2578125,-0.06640625,-0.0078125,0.005859375,-0.01171875
2026-09-07T15:03:12.233982,0.5445556640625,0.4334716796875,0.45538330078125,0.55517578125,-0.05859375,0.453125,-0.06640625,-0.015625,0.0,0.005859375
2026-09-07T15:03:12.334700,0.54473876953125,0.43316650390625,0.45562744140625,0.55499267578125,-0.02734375,-0.109375,-0.1796875,-0.01953125,-0.005859375,0.001953125
2026-09-07T15:03:12.434840,0.544677734375,0.43328857421875,0.4554443359375,0.55511474609375,0.01171875,-0.16015625,0.1953125,0.0,0.001953125,-0.005859375
2026-09-07T15:03:12.534225,0.5445556640625,0.43316650390625,0.45550537109375,0.5552978515625,-0.28515625,0.18359375,0.1328125,0.021484375,-0.0078125,0.01171875
2026-09-07T15:03:12.621594,0.544921875,0.43316650390625,0.455322265625,0.5550537109375,-0.26171875,-0.0703125,0.24609375,0.01953125,-0.00390625,-0.0078125
2026-09-07T15:03:12.722192,0.54498291015625,0.4332275390625,0.4552001953125,0.5550537109375,0.07421875,-0.12109375,0.046875,0.01953125,0.0,-0.005859375
2026-09-07T15:03:12.822467,0.544677734375,0.43353271484375,0.454833984375,0.55535888671875,-0.30078125,0.8125,-0.25390625,-0.00390625,-0.00390625,0.025390625
2026-09-07T15:03:12.933958,0.544677734375,0.4332275390625,0.45501708984375,0.5555419921875,-0.22265625,0.58984375,-0.23046875,-0.0234375,0.0,0.00390625
2026-09-07T15:03:13.042679,0.54388427734375,0.43243408203125,0.45550537109375,0.5565185546875,0.1015625,0.25,-0.3125,-0.037109375,-0.001953125,0.015625
2026-09-07T15:03:13.142525,0.54364013671875,0.43194580078125,0.455810546875,0.556884765625,0.0078125,0.06640625,0.20703125,-0.013671875,-0.001953125,0.009765625
2026-09-07T15:03:13.233242,0.54345703125,0.43170166015625,0.455810546875,0.5572509765625,0.0,-0.6875,0.13671875,-0.001953125,0.001953125,-0.017578125
2026-09-07T15:03:13.343247,0.542724609375,0.43310546875,0.45440673828125,0.5579833984375,0.09375,-0.83984375,0.0625,0.005859375,0.00390625,-0.017578125
2026-09-07T15:03:13.421198,0.54248046875,0.4334716796875,0.4541015625,0.5582275390625,-0.41796875,-0.50390625,0.30859375,-0.00390625,0.00390625,-0.013671875
2026-09-07T15:03:13.545064,0.541748046875,0.43438720703125,0.4532470703125,0.55889892578125,-0.10546875,-0.80859375,0.125,-0.015625,0.00390625,-0.013671875
2026-09-07T15:03:13.641440,0.54010009765625,0.43658447265625,0.451171875,0.56048583984375,-0.24609375,0.41015625,-0.01953125,-0.267578125,0.0,-0.005859375
2026-09-07T15:03:13.741351,0.5379638671875,0.43878173828125,0.44891357421875,0.56256103515625,-0.0078125,0.453125,-0.1875,-0.025390625,0.0,0.0
2026-09-07T15:03:13.841559,0.536376953125,0.44085693359375,0.44683837890625,0.56414794921875,0.12109375,-0.359375,0.1015625,0.00390625,-0.001953125,-0.015625
2026-09-07T15:03:13.931594,0.53607177734375,0.44122314453125,0.44647216796875,0.56451416015625,-0.24609375,0.17578125,0.20703125,0.0078125,-0.001953125,-0.001953125
2026-09-07T15:03:14.043392,0.5352783203125,0.44195556640625,0.44561767578125,0.5653076171875,-0.14453125,0.4453125,-0.046875,0.015625,-0.001953125,0.01953125
2026-09-07T15:03:14.141061,0.5352783203125,0.44281005859375,0.44488525390625,0.56524658203125,0.2890625,-0.4140625,-0.0390625,0.029296875,0.0,-0.0078125
2026-09-07T15:03:14.241353,0.53497314453125,0.44378662109375,0.4443359375,0.565185546875,-0.09375,0.3671875,-0.03125,0.01953125,0.009765625,0.0
2026-09-07T15:03:14.341223,0.53521728515625,0.4439697265625,0.4444580078125,0.56463623046875,-0.1171875,0.13671875,-0.06640625,0.0078125,0.005859375,0.00390625
2026-09-07T15:03:14.427574,0.54327392578125,0.4442138671875,0.44439697265625,0.5643310546875,0.2578125,-0.18359375,-0.05859375,-0.015625,0.00390625,0.001953125
2026-09-07T15:03:14.544508,0.53533935546875,0.445068359375,0.4439697265625,0.5640869140625,0.234375,-0.12890625,-0.2578125,-0.013671875,0.009765625,-0.01953125
2026-09-07T15:03:14.642789,0.53533935546875,0.44512939453125,0.44415283203125,0.56390380859375,0.03515625,0.13671875,0.00390625,-0.0078125,0.001953125,0.0
2026-09-07T15:03:14.743165,0.535888671875,0.44537353515625,0.44415283203125,0.563232421875,-0.02734375,-0.375,-0.109375,0.0078125,0.005859375,-0.001953125
2026-09-07T15:03:14.842093,0.53619384765625,0.44573974609375,0.4439697265625,0.562744140625,-0.05859375,0.16796875,0.2109375,0.01171875,0.001953125,-0.0078125
2026-09-07T15:03:14.928530,-1.463623046875,0.4456787109375,0.44415283203125,0.5625,-0.01171875,0.0546875,0.0625,0.013671875,0.00390625,-0.005859375
2026-09-07T15:03:15.029580,0.5364990234375,0.44580078125,0.44415283203125,0.56231689453125,0.09765625,-0.2890625,0.09375,-0.00390625,0.00390625,-0.02734375
2026-09-07T15:03:15.135282,0.53619384765625,0.4461669921875,0.44384765625,0.56256103515625,-0.671875,0.1484375,0.1171875,0.00390625,0.0,-0.00390625
2026-09-07T15:03:15.228899,0.536376953125,0.44580078125,0.444091796875,0.5625,-0.03515625,0.1484375,0.0546875,0.00390625,-0.005859375,0.259765625
2026-09-07T15:03:15.345887,0.53662109375,0.4449462890625,0.4447021484375,0.56243896484375,-0.1015625,0.26171875,0.1640625,0.00390625,-0.00390625,0.00390625
2026-09-07T15:03:15.443498,0.536376953125,0.44476318359375,0.44482421875,0.56268310546875,0.2421875,-0.12109375,0.0390625,0.0078125,-0.001953125,-0.009765625
2026-09-07T15:03:15.544195,0.53619384765625,0.4442138671875,0.44525146484375,0.56298828125,0.03515625,-0.18359375,0.17578125,-0.01171875,0.0,0.0078125
2026-09-07T15:03:15.639990,0.5361328125,0.44403076171875,0.4453125,0.5631103515625,0.1484375,-0.3203125,-0.0625,0.01171875,-0.001953125,-0.009765625
2026-09-07T15:03:15.741183,0.53564453125,0.4437255859375,0.445556640625,0.56365966796875,-0.10546875,-0.05078125,0.09375,-0.0078125,0.001953125,-0.021484375
2026-09-07T15:03:15.839867,0.53546142578125,0.44293212890625,0.43841552734375,0.56390380859375,0.0546875,0.0234375,0.015625,-0.0078125,0.0,0.0
2026-09-07T15:03:15.940882,0.53564453125,0.442138671875,0.44677734375,0.56390380859375,0.32421875,0.0859375,0.0703125,-0.00390625,0.0,0.005859375
2026-09-07T15:03:16.041649,0.53558349609375,0.44195556640625,0.44683837890625,0.5640869140625,0.28515625,-0.359375,-0.0078125,-0.001953125,0.001953125,-0.009765625
2026-09-07T15:03:16.142641,0.535888671875,0.44061279296875,0.44818115234375,0.56378173828125,-0.0234375,0.203125,0.0546875,-0.0078125,0.001953125,-0.00390625
2026-09-07T15:03:16.233748,0.5361328125,0.44024658203125,0.44842529296875,0.5635986328125,0.16796875,-0.2265625,0.359375,0.01171875,0.0,-0.00390625
2026-09-07T15:03:16.337603,0.53668212890625,0.4395751953125,0.44903564453125,0.5631103515625,0.328125,-0.2109375,-0.22265625,0.001953125,0.0,-0.0078125
2026-09-07T15:03:16.441125,0.537109375,0.43896484375,0.4495849609375,0.56280517578125,0.0390625,0.140625,-0.09375,0.0078125,0.001953125,-0.013671875
2026-09-07T15:03:16.541339,0.53765869140625,0.4383544921875,0.45013427734375,0.562255859375,0.0546875,0.03515625,0.09375,-0.00390625,-0.001953125,0.009765625
2026-09-07T15:03:16.641632,0.53814697265625,0.43817138671875,0.45025634765625,0.56182861328125,0.2734375,-0.1796875,0.015625,0.00390625,0.001953125,-0.00390625
2026-09-07T15:03:16.740937,0.5384521484375,0.4378662109375,0.45068359375,0.56146240234375,-0.015625,0.35546875,-0.12109375,0.0,0.001953125,-0.009765625
2026-09-07T15:03:16.830573,0.5386962890625,0.4375,0.45111083984375,0.56121826171875,-0.125,0.4453125,-0.046875,-0.013671875,0.001953125,0.02734375
2026-09-07T15:03:16.941024,0.5396728515625,0.43695068359375,0.45159912109375,0.56024169921875,0.16015625,-0.56640625,0.14453125,0.013671875,-0.001953125,-0.00390625
2026-09-07T15:03:17.040992,0.5399169921875,0.43695068359375,0.4517822265625,0.55987548828125,0.12109375,-0.26953125,-0.10546875,0.01171875,0.001953125,-0.005859375
2026-09-07T15:03:17.141227,0.54046630859375,0.436767578125,0.4521484375,0.5592041015625,0.04296875,0.17578125,-0.20703125,0.00390625,-0.001953125,0.005859375
2026-09-07T15:03:17.241016,0.5408935546875,0.43682861328125,0.4521484375,0.5587158203125,0.16015625,-0.28125,0.0390625,0.0078125,0.001953125,0.001953125
2026-09-07T15:03:17.333828,0.54095458984375,0.43695068359375,0.45220947265625,0.55853271484375,-0.00390625,-0.3671875,0.078125,0.01171875,0.00390625,-0.01953125
2026-09-07T15:03:17.441319,0.54095458984375,0.43646240234375,0.452880859375,0.55841064453125,-0.20703125,0.4140625,-0.01171875,-0.01953125,0.001953125,0.0
2026-09-07T15:03:17.541896,0.54144287109375,0.435791015625,0.45355224609375,0.557861328125,-0.03125,0.13671875,0.0859375,-0.013671875,0.0,0.021484375
2026-09-07T15:03:17.641911,0.5413818359375,0.43548583984375,0.45391845703125,0.55792236328125,0.3359375,-0.1953125,-0.00390625,-0.0234375,0.001953125,0.0078125
2026-09-07T15:03:17.741019,0.541015625,0.4351806640625,0.45440673828125,0.5579833984375,-0.00390625,0.08203125,0.046875,-0.01953125,0.005859375,-0.009765625
2026-09-07T15:03:17.833420,0.54107666015625,0.4349365234375,0.45489501953125,0.55780029296875,-0.203125,-0.234375,0.28515625,-0.009765625,0.001953125,0.0078125
2026-09-07T15:03:17.933526,0.54095458984375,0.43499755859375,0.4549560546875,0.557861328125,0.02734375,-0.421875,0.0859375,-0.01171875,0.00390625,-0.00390625
2026-09-07T15:03:18.040309,0.541015625,0.43487548828125,0.45513916015625,0.55767822265625,-0.0546875,0.40625,-0.12890625,-0.0078125,0.001953125,0.001953125
2026-09-07T15:03:18.143021,0.54132080078125,0.43475341796875,0.4552001953125,0.55743408203125,0.16015625,-0.55859375,0.16015625,0.0078125,-0.001953125,0.005859375
2026-09-07T15:03:18.241842,0.541015625,0.43505859375,0.45489501953125,0.5577392578125,0.02734375,-0.0234375,-0.34375,-0.015625,0.00390625,-0.0078125
2026-09-07T15:03:18.342252,0.5408935546875,0.43499755859375,0.45489501953125,0.55792236328125,-0.19921875,0.29296875,-0.11328125,-0.00390625,-0.001953125,-0.001953125
2026-09-07T15:03:18.442418,0.541259765625,0.434814453125,0.45489501953125,0.55767822265625,-0.046875,-0.296875,0.23828125,0.001953125,-0.00390625,0.013671875
2026-09-07T15:03:18.535089,0.54150390625,0.43524169921875,0.45440673828125,0.55755615234375,0.12890625,0.109375,-0.03125,0.021484375,-0.005859375,-0.00390625
2026-09-07T15:03:18.640023,0.54150390625,0.4354248046875,0.45416259765625,0.55755615234375,-0.24609375,0.140625,0.11328125,0.0234375,0.001953125,-0.025390625
2026-09-07T15:03:18.738883,0.5418701171875,0.4351806640625,0.45428466796875,0.557373046875,-0.0859375,0.31640625,0.07421875,0.025390625,-0.0078125,0.017578125
2026-09-07T15:03:18.839035,0.54241943359375,0.43475341796875,0.45440673828125,0.5570068359375,0.12109375,0.0859375,-0.23828125,0.01953125,-0.0078125,0.001953125
2026-09-07T15:03:18.939280,0.5426025390625,0.4345703125,0.45440673828125,0.5570068359375,-0.1875,0.09375,0.03125,0.015625,-0.00390625,-0.005859375
2026-09-07T15:03:19.048915,0.54315185546875,0.43365478515625,0.4549560546875,0.55670166015625,-0.26953125,0.375,-0.19921875,0.0,-0.005859375,0.013671875
2026-09-07T15:03:19.138800,0.54345703125,0.4334716796875,0.45501708984375,0.5565185546875,0.05859375,-0.23828125,0.03125,0.01953125,-0.005859375,-0.005859375
2026-09-07T15:03:19.239738,0.543701171875,0.433349609375,0.45489501953125,0.55645751953125,0.125,-0.20703125,0.0859375,0.01171875,-0.00390625,-0.013671875
2026-09-07T15:03:19.339095,0.5440673828125,0.43304443359375,0.455078125,0.55621337890625,-0.203125,0.4140625,-0.0546875,0.013671875,-0.001953125,0.005859375
2026-09-07T15:03:19.438958,0.544677734375,0.432373046875,0.45550537109375,0.5557861328125,0.08984375,-0.15234375,0.0625,0.001953125,-0.005859375,0.017578125
2026-09-07T15:03:19.531249,0.54486083984375,0.43231201171875,0.4554443359375,0.55572509765625,0.2265625,-0.3125,-0.08203125,0.01171875,0.001953125,-0.01953125
2026-09-07T15:03:19.639200,0.54473876953125,0.4322509765625,0.455322265625,0.55596923828125,-0.140625,0.16796875,0.09375,0.0,-0.00390625,-0.001953125
2026-09-07T15:03:19.740090,0.5452880859375,0.431884765625,0.455322265625,0.55572509765625,-0.1171875,0.24609375,-0.046875,0.013671875,-0.009765625,0.015625
2026-09-07T15:03:19.839157,0.545654296875,0.431640625,0.45526123046875,0.55560302734375,0.2890625,-0.0859375,0.046875,-0.001953125,0.0,-0.005859375
2026-09-07T15:03:19.938967,0.54571533203125,0.43157958984375,0.45526123046875,0.5556640625,0.09375,0.27734375,-0.0234375,0.013671875,-0.001953125,-0.00390625
2026-09-07T15:03:20.376997,0.5472412109375,0.43017578125,0.4569091796875,0.5538330078125,-0.09765625,0.4296875,-0.28125,-0.033203125,0.005859375,0.0
2026-09-07T15:03:20.480168,0.54888916015625,0.430908203125,0.45648193359375,0.55194091796875,-0.03515625,0.359375,0.08984375,-0.01953125,0.005859375,-0.00390625
2026-09-07T15:03:20.579642,0.5496826171875,0.43109130859375,0.4566650390625,0.55084228515625,-0.28125,0.203125,-0.18359375,-0.02734375,0.005859375,0.017578125
2026-09-07T15:03:20.680413,0.5498046875,0.431396484375,0.456787109375,0.5504150390625,0.03125,-0.30859375,0.37890625,-0.001953125,0.009765625,-0.009765625
2026-09-07T15:03:20.779429,0.54931640625,0.43182373046875,0.4569091796875,0.550537109375,0.078125,-0.18359375,0.05078125,-0.013671875,0.01171875,-0.015625
2026-09-07T15:03:20.978714,0.54888916015625,0.431396484375,0.45819091796875,0.55023193359375,-0.04296875,0.05859375,-0.01171875,-0.013671875,0.005859375,0.0078125
2026-09-07T15:03:21.066825,0.54864501953125,0.4315185546875,0.458251953125,0.55023193359375,0.0234375,-0.3203125,0.06640625,-0.01953125,0.009765625,-0.015625
2026-09-07T15:03:21.302867,0.54852294921875,0.43157958984375,0.45892333984375,0.54974365234375,-0.3203125,0.2734375,0.140625,0.00390625,0.0078125,0.009765625
2026-09-07T15:03:21.399727,0.5487060546875,0.43194580078125,0.45880126953125,0.54937744140625,0.52734375,-0.125,0.15625,0.01953125,0.009765625,-0.0390625
2026-09-07T15:03:21.499470,0.548583984375,0.43212890625,0.45904541015625,0.5491943359375,0.20703125,0.44921875,0.1328125,0.017578125,0.001953125,0.01171875
2026-09-07T15:03:21.600399,0.54925537109375,0.431396484375,0.4598388671875,0.5484619140625,0.33984375,0.30078125,0.20703125,0.0078125,-0.001953125,0.01953125
2026-09-07T15:03:21.684918,0.5499267578125,0.4307861328125,0.46038818359375,0.54779052734375,0.4296875,-0.01953125,-0.0390625,-0.01171875,0.00390625,0.0078125
2026-09-07T15:03:21.791758,0.54998779296875,0.43011474609375,0.46087646484375,0.54779052734375,0.0703125,0.4453125,-0.11328125,0.00390625,0.0,0.005859375
2026-09-07T15:03:21.900234,0.5499267578125,0.4298095703125,0.4610595703125,0.54791259765625,-0.0625,0.0390625,0.0859375,-0.00390625,-0.001953125,0.00390625
2026-09-07T15:03:21.999709,0.550048828125,0.42950439453125,0.461181640625,0.54791259765625,0.24609375,-0.46484375,-0.0234375,-0.009765625,-0.00390625,0.001953125
2026-09-07T15:03:22.100309,0.54986572265625,0.4296875,0.4610595703125,0.54815673828125,-0.17578125,0.25390625,0.25390625,0.0,0.005859375,-0.00390625
2026-09-07T15:03:22.199343,0.54974365234375,0.43011474609375,0.46075439453125,0.54815673828125,-0.17578125,0.25390625,-0.05078125,0.005859375,0.0,0.01953125
2026-09-07T15:03:22.298594,0.550048828125,0.42962646484375,0.46124267578125,0.54779052734375,-0.19921875,1.08984375,-0.3125,-0.0078125,0.0,0.015625
2026-09-07T15:03:22.400366,0.5499267578125,0.42877197265625,0.46209716796875,0.54791259765625,0.296875,0.046875,-0.06640625,-0.033203125,0.001953125,0.0234375
2026-09-07T15:03:22.500222,0.54937744140625,0.42767333984375,0.4632568359375,0.54840087890625,0.3203125,-0.26953125,0.3671875,-0.03125,0.0,0.015625
2026-09-07T15:03:22.599571,0.548828125,0.4266357421875,0.46417236328125,0.54888916015625,0.47265625,-0.23828125,0.015625,-0.009765625,0.001953125,-0.0078125
2026-09-07T15:03:22.701236,0.5482177734375,0.4266357421875,0.4642333984375,0.5494384765625,-0.15234375,0.0625,-0.3671875,0.0,0.005859375,-0.009765625
2026-09-07T15:03:22.792302,0.5478515625,0.4268798828125,0.4642333984375,0.54962158203125,-0.32421875,0.40625,-0.12890625,-0.00390625,0.00390625,0.013671875
2026-09-07T15:03:22.900418,0.54827880859375,0.42669677734375,0.4644775390625,0.54913330078125,0.4375,-0.1171875,-0.22265625,0.009765625,0.001953125,0.0
2026-09-07T15:03:22.999680,0.54833984375,0.42633056640625,0.4649658203125,0.54901123046875,0.22265625,0.1875,-0.14453125,0.0,0.00390625,-0.009765625
2026-09-07T15:03:23.100466,0.548095703125,0.4259033203125,0.4654541015625,0.54913330078125,0.09765625,0.31640625,-0.08203125,-0.013671875,0.0,0.0078125
2026-09-07T15:03:23.199797,0.54827880859375,0.42535400390625,0.4659423828125,0.5489501953125,0.18359375,-0.51171875,-0.015625,-0.00390625,0.0,-0.00390625
2026-09-07T15:03:23.292427,0.54840087890625,0.4251708984375,0.4661865234375,0.548828125,-0.23828125,0.34765625,0.19921875,0.009765625,0.001953125,-0.013671875
2026-09-07T15:03:23.392663,0.54852294921875,0.42529296875,0.466064453125,0.54864501953125,-0.26171875,0.26953125,-0.046875,0.0,0.001953125,-0.001953125
2026-09-07T15:03:23.495370,0.54876708984375,0.4249267578125,0.46636962890625,0.5484619140625,0.14453125,-0.23046875,-0.12890625,0.005859375,-0.001953125,0.005859375
2026-09-07T15:03:23.601105,0.5489501953125,0.4246826171875,0.46649169921875,0.54833984375,-0.0625,0.328125,-0.12890625,0.0,-0.00390625,0.0078125
2026-09-07T15:03:23.709038,0.5489501953125,0.4244384765625,0.46661376953125,0.5484619140625,-0.0625,0.39453125,-0.19921875,-0.015625,-0.005859375,0.03125
2026-09-07T15:03:23.800167,0.5487060546875,0.42340087890625,0.46734619140625,0.54876708984375,0.19921875,-0.4921875,-0.0390625,-0.015625,-0.00390625,-0.001953125
2026-09-07T15:03:23.908811,0.54833984375,0.42340087890625,0.4674072265625,0.5491943359375,0.01171875,0.44140625,-0.0078125,-0.021484375,0.0,-0.01171875
2026-09-07T15:03:23.991778,0.5474853515625,0.42291259765625,0.46783447265625,0.550048828125,-0.109375,-0.00390625,-0.46875,-0.0546875,0.001953125,0.01171875
2026-09-07T15:03:24.093287,0.54730224609375,0.42242431640625,0.46820068359375,0.55023193359375,0.20703125,-0.453125,-0.15234375,-0.029296875,0.001953125,-0.00390625
2026-09-07T15:03:24.209671,0.54669189453125,0.42242431640625,0.46826171875,0.55084228515625,-0.25390625,-0.015625,0.30078125,-0.021484375,0.0078125,-0.009765625
2026-09-07T15:03:24.296794,0.54583740234375,0.42279052734375,0.4681396484375,0.551513671875,-0.14453125,-0.15234375,-0.14453125,-0.009765625,0.00390625,0.001953125
2026-09-07T15:03:24.398832,0.54595947265625,0.42291259765625,0.46807861328125,0.5513916015625,0.16015625,-0.265625,0.34375,0.0234375,-0.001953125,0.005859375
2026-09-07T15:03:24.498498,0.5462646484375,0.42352294921875,0.4674072265625,0.5511474609375,0.0625,-0.12109375,0.03515625,0.021484375,0.00390625,-0.013671875
2026-09-07T15:03:24.592994,0.54620361328125,0.4241943359375,0.46685791015625,0.5511474609375,-0.12890625,0.140625,-0.1171875,0.015625,0.001953125,-0.0078125
2026-09-07T15:03:24.706882,0.5462646484375,0.42425537109375,0.46685791015625,0.55108642578125,0.1171875,-0.1953125,0.20703125,0.009765625,0.00390625,-0.0078125
2026-09-07T15:03:24.797475,0.54638671875,0.42462158203125,0.46636962890625,0.551025390625,-0.0078125,0.1015625,-0.1171875,-0.00390625,0.0,0.0
2026-09-07T15:03:24.898617,0.54638671875,0.4246826171875,0.46630859375,0.551025390625,-0.08984375,0.30078125,-0.0546875,-0.00390625,-0.005859375,0.013671875
2026-09-07T15:03:24.998073,0.5465087890625,0.42431640625,0.46649169921875,0.551025390625,0.19140625,-0.30078125,0.18359375,0.001953125,-0.001953125,0.009765625
2026-09-07T15:03:25.092801,0.54644775390625,0.42437744140625,0.46636962890625,0.55120849609375,0.12109375,0.01171875,-0.12890625,-0.01953125,0.0,-0.009765625
2026-09-07T15:03:25.193620,0.5460205078125,0.42437744140625,0.46630859375,0.55169677734375,-0.13671875,0.05859375,0.22265625,-0.013671875,0.0,0.009765625
2026-09-07T15:03:25.292229,0.5460205078125,0.42388916015625,0.4666748046875,0.5517578125,-0.0546875,-0.1953125,0.8203125,-0.001953125,-0.001953125,0.009765625
2026-09-07T15:03:25.398140,0.54595947265625,0.4239501953125,0.466552734375,0.55181884765625,-0.13671875,0.01171875,-0.17578125,0.013671875,-0.00390625,-0.0234375
2026-09-07T15:03:25.505957,0.54559326171875,0.4244384765625,0.466064453125,0.55224609375,-0.0390625,-0.015625,-0.4140625,-0.0078125,0.0,-0.005859375
2026-09-07T15:03:25.596555,0.54498291015625,0.4241943359375,0.46630859375,0.55279541015625,-0.19921875,0.015625,0.14453125,0.005859375,-0.00390625,-0.005859375
2026-09-07T15:03:25.705099,0.5447998046875,0.4241943359375,0.46624755859375,0.5531005859375,0.125,-0.25,0.19921875,0.001953125,-0.00390625,-0.005859375
2026-09-07T15:03:25.796709,0.5440673828125,0.42413330078125,0.46600341796875,0.553955078125,-0.3046875,0.38671875,-0.0078125,-0.017578125,0.001953125,-0.013671875
2026-09-07T15:03:25.905739,0.54400634765625,0.4237060546875,0.46624755859375,0.55419921875,-0.04296875,0.4453125,0.13671875,-0.015625,-0.01171875,0.0078125
2026-09-07T15:03:26.004005,0.54339599609375,0.4229736328125,0.4664306640625,0.55517578125,0.078125,0.12109375,-0.25390625,-0.009765625,-0.0078125,0.005859375
2026-09-07T15:03:26.104094,0.543212890625,0.422607421875,0.46649169921875,0.5556640625,-0.08984375,0.58984375,-0.06640625,0.0,-0.0078125,0.005859375
2026-09-07T15:03:26.204216,0.54315185546875,0.4222412109375,0.4664306640625,0.55596923828125,0.078125,-0.23046875,-0.10546875,0.01953125,-0.0078125,-0.017578125
2026-09-07T15:03:26.293176,0.542724609375,0.422607421875,0.4658203125,0.556640625,0.0078125,-0.23828125,-0.21875,0.0,-0.005859375,-0.0078125
2026-09-07T15:03:26.413718,0.54266357421875,0.4227294921875,0.46563720703125,0.55682373046875,-0.10546875,-0.01171875,-0.1875,0.0078125,-0.00390625,0.009765625
2026-09-07T15:03:26.503799,0.54278564453125,0.42230224609375,0.46563720703125,0.55694580078125,0.21484375,-0.3359375,-0.06640625,-0.009765625,-0.001953125,0.00390625
2026-09-07T15:03:26.605619,0.54266357421875,0.42236328125,0.4654541015625,0.55718994140625,0.0859375,0.31640625,-0.35546875,-0.005859375,-0.005859375,0.017578125
2026-09-07T15:03:26.714032,0.54290771484375,0.42205810546875,0.465576171875,0.55712890625,-0.01953125,0.453125,-0.24609375,0.01171875,-0.005859375,0.015625
2026-09-07T15:03:26.793534,0.543212890625,0.421875,0.46551513671875,0.5570068359375,0.23828125,-0.59375,-0.171875,0.00390625,0.0,0.009765625
2026-09-07T15:03:26.914459,0.54296875,0.4227294921875,0.46478271484375,0.55718994140625,-0.015625,-0.21484375,0.0,-0.005859375,0.001953125,-0.005859375
2026-09-07T15:03:27.003668,0.54315185546875,0.42254638671875,0.46484375,0.55706787109375,-0.14453125,0.375,-0.0078125,0.0,-0.001953125,0.017578125
2026-09-07T15:03:27.113665,0.54376220703125,0.4224853515625,0.46478271484375,0.55657958984375,0.1015625,-0.33984375,0.17578125,0.00390625,0.00390625,-0.0078125
2026-09-07T15:03:27.211917,0.5438232421875,0.42352294921875,0.4639892578125,0.556396484375,-0.015625,-0.13671875,-0.24609375,0.013671875,0.005859375,-0.017578125
2026-09-07T15:03:27.291823,0.5439453125,0.4241943359375,0.4637451171875,0.55596923828125,-0.17578125,0.03125,-0.265625,-0.009765625,0.00390625,0.005859375
2026-09-07T15:03:27.415284,0.5445556640625,0.4246826171875,0.46356201171875,0.55511474609375,-0.03515625,-0.01171875,0.17578125,0.00390625,-0.001953125,0.009765625
2026-09-07T15:03:27.511836,0.544677734375,0.42498779296875,0.46337890625,0.55499267578125,-0.11328125,0.5,-0.15234375,-0.013671875,0.001953125,0.0
2026-09-07T15:03:27.612081,0.54473876953125,0.4251708984375,0.4632568359375,0.554931640625,-0.1640625,0.58203125,-0.06640625,-0.005859375,0.0,0.01171875
2026-09-07T15:03:27.712843,0.54510498046875,0.42572021484375,0.4627685546875,0.55450439453125,0.109375,-0.1875,-0.0234375,0.001953125,0.001953125,0.0
2026-09-07T15:03:27.811575,0.5450439453125,0.4261474609375,0.46240234375,0.55450439453125,0.125,-0.30078125,0.109375,0.015625,0.00390625,-0.00390625
2026-09-07T15:03:27.911652,0.54547119140625,0.4267578125,0.4620361328125,0.553955078125,-0.12890625,-0.046875,-0.15234375,0.029296875,0.001953125,0.00390625
2026-09-07T15:03:28.012103,0.545654296875,0.427490234375,0.46142578125,0.55377197265625,0.26953125,-0.55078125,-0.046875,0.01953125,0.001953125,-0.01953125
2026-09-07T15:03:28.112500,0.54547119140625,0.42791748046875,0.46099853515625,0.55389404296875,-0.2734375,0.4453125,0.0859375,-0.00390625,0.0,0.00390625
2026-09-07T15:03:28.212173,0.54522705078125,0.42755126953125,0.461181640625,0.55426025390625,-0.1171875,0.0078125,-0.16796875,-0.015625,-0.00390625,0.005859375
2026-09-07T15:03:28.297176,0.54498291015625,0.42767333984375,0.4610595703125,0.5545654296875,0.1171875,-0.28515625,0.09375,-0.01171875,0.001953125,-0.01953125
2026-09-07T15:03:28.413752,0.54376220703125,0.428466796875,0.46026611328125,0.5557861328125,0.109375,-0.55078125,-0.06640625,-0.021484375,0.0,-0.005859375
2026-09-07T15:03:28.512132,0.543212890625,0.4283447265625,0.4603271484375,0.55633544921875,-0.26171875,0.0234375,0.0703125,-0.0078125,-0.00390625,0.001953125
2026-09-07T15:03:28.613048,0.54266357421875,0.42889404296875,0.4598388671875,0.556884765625,0.10546875,-0.49609375,0.18359375,0.0,-0.00390625,-0.013671875
2026-09-07T15:03:28.713904,0.5423583984375,0.42974853515625,0.45904541015625,0.55718994140625,0.1640625,-0.30078125,0.11328125,0.01953125,0.0,-0.01171875
2026-09-07T15:03:28.800937,0.54229736328125,0.4298095703125,0.458984375,0.5572509765625,-0.03125,0.1328125,0.328125,0.03515625,0.0,0.009765625
2026-09-07T15:03:28.914232,0.54278564453125,0.4305419921875,0.458251953125,0.5567626953125,-0.0546875,0.265625,0.04296875,0.04296875,0.001953125,-0.009765625
2026-09-07T15:03:29.012682,0.543212890625,0.43096923828125,0.4578857421875,0.55633544921875,-0.00390625,0.36328125,0.03515625,0.025390625,0.0,0.001953125
2026-09-07T15:03:29.113895,0.54345703125,0.4307861328125,0.4580078125,0.55615234375,0.2421875,-0.24609375,-0.15234375,0.021484375,0.0,-0.001953125
2026-09-07T15:03:29.213329,0.54376220703125,0.43115234375,0.45758056640625,0.555908203125,-0.09375,-0.0390625,-0.28515625,0.0,0.0,0.001953125
2026-09-07T15:03:29.299569,0.5438232421875,0.43121337890625,0.45745849609375,0.555908203125,-0.21875,0.12109375,0.0078125,-0.00390625,0.0,0.005859375
2026-09-07T15:03:29.416640,0.54443359375,0.431396484375,0.45721435546875,0.55535888671875,-0.05859375,0.14453125,-0.05859375,-0.001953125,0.0,0.013671875
2026-09-07T15:03:29.515073,0.54473876953125,0.431884765625,0.456787109375,0.55511474609375,0.2265625,-0.6796875,-0.08984375,-0.001953125,0.00390625,-0.015625
2026-09-07T15:03:29.614756,0.54486083984375,0.43218994140625,0.45660400390625,0.55487060546875,-0.1640625,-0.21875,-0.06640625,-0.009765625,0.00390625,-0.001953125
2026-09-07T15:03:29.715781,0.5452880859375,0.431640625,0.45697021484375,0.5545654296875,0.00390625,0.4375,-0.03515625,0.009765625,-0.005859375,0.015625
2026-09-07T15:03:29.814519,0.5455322265625,0.4310302734375,0.4573974609375,0.554443359375,0.109375,0.26953125,-0.07421875,-0.0078125,-0.00390625,0.001953125
2026-09-07T15:03:29.910283,0.5455322265625,0.43060302734375,0.457763671875,0.55450439453125,-0.12109375,0.55078125,0.078125,-0.01171875,0.0,0.0078125
2026-09-07T15:03:30.011305,0.5457763671875,0.4300537109375,0.458251953125,0.55426025390625,-0.12890625,0.05859375,-0.17578125,-0.013671875,0.0,0.01171875
2026-09-07T15:03:30.111826,0.54595947265625,0.429931640625,0.4583740234375,0.5540771484375,0.03125,-0.2265625,-0.0078125,0.0078125,-0.00390625,0.017578125
2026-09-07T15:03:30.207580,0.54583740234375,0.4295654296875,0.458740234375,0.55419921875,-0.03515625,-0.171875,-0.0546875,0.001953125,0.001953125,-0.005859375
2026-09-07T15:03:30.304772,0.54583740234375,0.42901611328125,0.459228515625,0.55419921875,-0.08203125,0.1953125,-0.0546875,-0.00390625,-0.00390625,0.03125
2026-09-07T15:03:30.412466,0.54608154296875,0.4287109375,0.45941162109375,0.55401611328125,-0.05859375,-0.01171875,-0.21484375,-0.001953125,0.001953125,0.0
2026-09-07T15:03:30.512366,0.546142578125,0.4288330078125,0.459228515625,0.55401611328125,-0.10546875,0.296875,0.09375,-0.00390625,0.001953125,0.00390625
2026-09-07T15:03:30.611559,0.54644775390625,0.42926025390625,0.45880126953125,0.5537109375,0.1875,-0.31640625,0.25390625,-0.001953125,0.0,0.005859375
2026-09-07T15:03:30.712508,0.54669189453125,0.4298095703125,0.45831298828125,0.553466796875,-0.03515625,-0.3984375,-0.09765625,0.001953125,0.00390625,0.005859375
2026-09-07T15:03:30.806296,0.54705810546875,0.43011474609375,0.45806884765625,0.5531005859375,0.06640625,0.28515625,0.046875,0.001953125,0.001953125,0.00390625
2026-09-07T15:03:30.911655,0.54742431640625,0.429931640625,0.45806884765625,0.5528564453125,-0.1640625,0.26171875,0.15625,0.0,-0.00390625,0.03125
2026-09-07T15:03:31.010818,0.54705810546875,0.43011474609375,0.457763671875,0.5533447265625,0.1640625,0.07421875,0.00390625,0.00390625,0.0,-0.005859375
2026-09-07T15:03:31.111810,0.54705810546875,0.4302978515625,0.45745849609375,0.55340576171875,-0.171875,0.04296875,0.15625,-0.001953125,-0.001953125,-0.01953125
2026-09-07T15:03:31.212145,0.54754638671875,0.43072509765625,0.4569091796875,0.55303955078125,-0.02734375,-0.53125,0.5,0.025390625,-0.001953125,-0.001953125
2026-09-07T15:03:31.302428,0.54730224609375,0.43194580078125,0.455810546875,0.55328369140625,-0.00390625,-0.51171875,0.1171875,0.02734375,0.0,-0.0234375
2026-09-07T15:03:31.411727,0.54705810546875,0.4322509765625,0.45556640625,0.553466796875,-0.2109375,0.05078125,-0.12890625,0.013671875,0.0,-0.0078125
2026-09-07T15:03:31.512332,0.54718017578125,0.43212890625,0.45556640625,0.553466796875,0.2734375,0.05859375,-0.08984375,-0.0078125,-0.001953125,0.01953125
2026-09-07T15:03:31.611672,0.54669189453125,0.4322509765625,0.45538330078125,0.553955078125,0.03515625,0.6015625,-0.01953125,0.0,0.0,-0.005859375
2026-09-07T15:03:31.712631,0.5465087890625,0.4322509765625,0.45538330078125,0.55413818359375,0.00390625,0.24609375,0.05078125,-0.00390625,0.0,-0.009765625
2026-09-07T15:03:31.803594,0.54656982421875,0.43231201171875,0.4554443359375,0.5540771484375,0.12109375,-0.37109375,-0.05078125,0.00390625,0.001953125,0.0
2026-09-07T15:03:31.903891,0.54608154296875,0.4327392578125,0.4552001953125,0.55438232421875,0.05078125,-0.03125,-0.08984375,0.005859375,0.00390625,-0.021484375
2026-09-07T15:03:32.004029,0.54595947265625,0.43304443359375,0.45513916015625,0.5543212890625,-0.1953125,-0.0703125,-0.04296875,-0.001953125,0.001953125,-0.00390625
2026-09-07T15:03:32.110785,0.54595947265625,0.43310546875,0.4552001953125,0.55419921875,-0.1015625,0.17578125,0.04296875,-0.001953125,0.00390625,0.001953125
2026-09-07T15:03:32.212319,0.5458984375,0.43328857421875,0.455322265625,0.5540771484375,-0.03515625,0.35546875,-0.25,-0.025390625,0.005859375,-0.001953125
2026-09-07T15:03:32.312253,0.54608154296875,0.43267822265625,0.45599365234375,0.55377197265625,-0.05859375,0.62890625,-0.08984375,-0.0234375,0.001953125,0.021484375
2026-09-07T15:03:32.412860,0.5462646484375,0.43231201171875,0.45648193359375,0.553466796875,0.37109375,-0.07421875,-0.265625,-0.021484375,0.0,0.03125
2026-09-07T15:03:32.513139,0.5458984375,0.432373046875,0.4566650390625,0.55364990234375,0.0859375,0.1640625,0.1640625,-0.03125,0.005859375,0.00390625
2026-09-07T15:03:32.620778,0.54541015625,0.43206787109375,0.457275390625,0.5538330078125,-0.12109375,-0.2265625,-0.2265625,-0.02734375,0.00390625,-0.001953125
2026-09-07T15:03:32.712209,0.544921875,0.43231201171875,0.45733642578125,0.5540771484375,0.1171875,-0.31640625,0.0859375,-0.0234375,0.255859375,-0.017578125
2026-09-07T15:03:32.820395,0.5445556640625,0.43243408203125,0.45751953125,0.55419921875,-0.1328125,0.18359375,-0.1328125,-0.03515625,0.0078125,-0.0078125
2026-09-07T15:03:32.909231,0.54461669921875,0.43218994140625,0.45782470703125,0.5540771484375,-0.234375,0.18359375,0.73828125,0.0,0.0,0.013671875
2026-09-07T15:03:33.004881,0.54522705078125,0.4324951171875,-1.54248046875,0.55352783203125,0.34765625,-0.57421875,0.28515625,0.01171875,0.001953125,0.009765625
2026-09-07T15:03:33.109650,0.54510498046875,0.43292236328125,0.45721435546875,0.55352783203125,-0.05078125,0.0390625,-0.015625,0.01953125,0.00390625,-0.021484375
2026-09-07T15:03:33.209696,0.54534912109375,0.433349609375,0.4569091796875,0.55316162109375,-0.1171875,-0.08984375,-0.03125,0.02734375,0.0,0.001953125
2026-09-07T15:03:33.310926,0.545654296875,0.43341064453125,0.4569091796875,0.5528564453125,0.07421875,0.21484375,-0.05859375,0.013671875,0.0,0.001953125
2026-09-07T15:03:33.409898,0.54547119140625,0.43389892578125,0.45660400390625,0.5528564453125,-0.24609375,0.0859375,-0.46484375,0.021484375,0.005859375,-0.01953125
2026-09-07T15:03:33.502385,0.54510498046875,0.4339599609375,0.4566650390625,0.55316162109375,-0.0390625,0.27734375,-0.03515625,-0.013671875,0.0,-0.001953125
2026-09-07T15:03:33.605125,0.54461669921875,0.434326171875,0.4564208984375,0.5535888671875,-0.09375,0.0703125,0.203125,-0.021484375,0.001953125,0.00390625
2026-09-07T15:03:33.701306,0.5443115234375,0.4344482421875,0.45623779296875,0.55389404296875,-0.24609375,0.18359375,0.48046875,-0.0234375,0.00390625,0.0
2026-09-07T15:03:33.810323,0.5440673828125,0.4344482421875,0.45623779296875,0.55419921875,0.16796875,0.16796875,0.0390625,-0.01953125,-0.00390625,0.013671875
2026-09-07T15:03:33.909820,0.54400634765625,0.4342041015625,0.456298828125,0.55438232421875,0.05078125,-0.5859375,0.0078125,-0.001953125,-0.001953125,0.009765625
2026-09-07T15:03:34.009527,0.54364013671875,0.434326171875,0.4560546875,0.5548095703125,-0.0390625,-0.5078125,0.55078125,0.017578125,-0.001953125,-0.00390625
2026-09-07T15:03:34.109486,0.54339599609375,0.43426513671875,0.45599365234375,0.55511474609375,-0.09375,0.16015625,0.08203125,0.01171875,-0.005859375,0.009765625
2026-09-07T15:03:34.203998,0.5433349609375,0.43408203125,0.4559326171875,0.55535888671875,0.28125,-0.546875,-0.25390625,0.025390625,-0.00390625,-0.005859375
2026-09-07T15:03:34.317034,0.5428466796875,0.43450927734375,0.4554443359375,0.55596923828125,-0.20703125,-0.0078125,0.16015625,0.01953125,-0.001953125,-0.01953125
2026-09-07T15:03:34.408264,0.542724609375,0.43438720703125,0.45538330078125,0.55621337890625,-0.0390625,0.0078125,-0.25390625,0.009765625,-0.005859375,0.00390625
2026-09-07T15:03:34.516920,0.542724609375,0.43414306640625,0.45538330078125,0.55645751953125,0.16015625,-0.296875,-0.0078125,0.0078125,-0.00390625,-0.005859375
2026-09-07T15:03:34.608861,0.5426025390625,0.4344482421875,0.45489501953125,0.556640625,-0.046875,-0.03515625,-0.078125,0.0078125,-0.005859375,0.0
2026-09-07T15:03:34.717156,0.54278564453125,0.434326171875,0.454833984375,0.55670166015625,0.18359375,-0.296875,0.28515625,0.009765625,-0.005859375,0.01171875
2026-09-07T15:03:34.804286,0.54302978515625,0.43426513671875,0.45458984375,0.556640625,0.71484375,-0.2890625,-0.26953125,0.005859375,-0.005859375,-0.005859375
2026-09-07T15:03:35.153124,0.5438232421875,0.43389892578125,0.45379638671875,0.556884765625,0.328125,-0.55859375,0.19921875,0.0078125,0.0,0.0
2026-09-07T15:03:35.235067,0.54388427734375,0.43402099609375,0.45355224609375,0.556884765625,0.2890625,-0.23046875,-0.0859375,0.017578125,-0.005859375,0.00390625
2026-09-07T15:03:35.336233,0.54425048828125,0.4339599609375,0.45330810546875,0.55670166015625,0.04296875,0.24609375,-0.11328125,0.021484375,-0.0078125,-0.001953125
2026-09-07T15:03:35.444891,0.54486083984375,0.43402099609375,0.45294189453125,0.55645751953125,0.21875,-0.53515625,-0.13671875,0.013671875,-0.005859375,-0.017578125
2026-09-07T15:03:35.523106,0.5452880859375,0.43408203125,0.45257568359375,0.5562744140625,0.171875,-0.234375,-0.3203125,0.025390625,-0.00390625,-0.01171875
2026-09-07T15:03:35.647060,0.54620361328125,0.43365478515625,0.45233154296875,0.55584716796875,0.01953125,0.04296875,0.19140625,0.01953125,-0.009765625,0.001953125
2026-09-07T15:03:35.735402,0.54644775390625,0.43353271484375,0.4522705078125,0.5557861328125,0.00390625,0.234375,0.015625,0.0,-0.005859375,-0.005859375
2026-09-07T15:03:35.845494,0.546630859375,0.43170166015625,0.453369140625,0.55609130859375,0.00390625,0.6796875,-0.015625,-0.0390625,-0.0078125,0.025390625
2026-09-07T15:03:35.942935,0.5467529296875,0.430908203125,0.4539794921875,0.54833984375,-0.2421875,0.51953125,0.24609375,0.0,-0.01171875,0.017578125
2026-09-07T15:03:36.023240,0.54779052734375,0.42962646484375,0.45458984375,0.55560302734375,-0.03515625,0.21875,0.17578125,0.009765625,-0.01171875,0.033203125
2026-09-07T15:03:36.144549,0.54833984375,0.42926025390625,0.45465087890625,0.5552978515625,-0.01953125,0.125,-0.0078125,-0.001953125,-0.00390625,0.015625
2026-09-07T15:03:36.244129,0.54888916015625,0.42803955078125,0.45538330078125,0.55511474609375,-0.07421875,-0.015625,-0.453125,-0.017578125,-0.00390625,-0.001953125
2026-09-07T15:03:36.343340,0.548583984375,0.42724609375,0.45587158203125,0.55560302734375,-0.0390625,-0.46484375,0.015625,-0.01953125,-0.005859375,0.005859375
2026-09-07T15:03:36.443988,0.54840087890625,0.42645263671875,0.456298828125,0.55609130859375,-0.2421875,0.28125,-0.12890625,-0.015625,-0.0078125,0.009765625
2026-09-07T15:03:36.543420,0.5487060546875,0.42547607421875,0.45672607421875,0.55615234375,-0.01171875,0.01171875,-0.08203125,-0.001953125,-0.005859375,0.0078125
2026-09-07T15:03:36.643944,0.54876708984375,0.4251708984375,0.45672607421875,0.55633544921875,-0.08203125,0.08984375,-0.03125,0.02734375,-0.005859375,-0.009765625
2026-09-07T15:03:36.743316,0.5491943359375,0.425537109375,0.45611572265625,0.55609130859375,-0.03515625,-0.15234375,0.0859375,0.021484375,-0.005859375,0.00390625
2026-09-07T15:03:36.844208,0.550048828125,0.4263916015625,0.45489501953125,0.5556640625,0.09375,-0.57421875,0.078125,0.056640625,-0.00390625,-0.03515625
2026-09-07T15:03:36.943534,0.5504150390625,0.427001953125,0.45404052734375,0.55548095703125,-0.06640625,-0.1796875,0.078125,0.021484375,-0.0078125,0.0
2026-09-07T15:03:37.043476,0.55096435546875,0.4266357421875,0.45404052734375,0.55523681640625,-0.21875,0.234375,-0.05078125,0.013671875,-0.0078125,0.01953125
2026-09-07T15:03:37.141648,0.5513916015625,0.42657470703125,0.45391845703125,0.55499267578125,0.1796875,-0.19921875,-0.12890625,-0.005859375,-0.0078125,0.013671875
2026-09-07T15:03:37.243503,0.55145263671875,0.426025390625,0.45391845703125,0.5552978515625,0.29296875,0.04296875,-0.06640625,-0.037109375,-0.00390625,0.017578125
2026-09-07T15:03:37.344485,0.5509033203125,0.42510986328125,0.4547119140625,0.555908203125,0.0859375,0.45703125,-0.28515625,-0.04296875,-0.00390625,0.009765625
2026-09-07T15:03:37.444687,0.54974365234375,0.4248046875,0.45501708984375,0.5570068359375,0.171875,-0.48828125,0.06640625,-0.03125,0.0,-0.0234375
2026-09-07T15:03:37.544268,0.549072265625,0.42529296875,0.45458984375,0.55767822265625,-0.08203125,-0.6953125,0.2421875,-0.015625,0.0,-0.01171875
2026-09-07T15:03:37.746488,0.54864501953125,0.42431640625,0.45550537109375,0.55810546875,-0.28125,0.02734375,0.42578125,-0.037109375,0.001953125,0.005859375
2026-09-07T15:03:37.845581,0.54833984375,0.424560546875,0.45526123046875,0.55841064453125,0.09375,-0.2890625,0.2109375,-0.025390625,0.0,0.001953125
2026-09-07T15:03:37.944914,0.5487060546875,0.4249267578125,0.45477294921875,0.55816650390625,0.00390625,-0.20703125,-0.01171875,0.0078125,0.001953125,-0.00390625
2026-09-07T15:03:38.043642,0.54901123046875,0.42584228515625,0.453857421875,0.55792236328125,0.1484375,-0.50390625,0.109375,0.02734375,0.001953125,-0.0234375
2026-09-07T15:03:38.138012,0.54901123046875,0.42626953125,0.45343017578125,0.55792236328125,-0.2421875,0.07421875,0.0234375,0.025390625,0.0,-0.0234375
2026-09-07T15:03:38.235350,0.54931640625,0.4266357421875,0.45306396484375,0.55767822265625,-0.1640625,0.265625,-0.17578125,0.025390625,-0.00390625,0.00390625
2026-09-07T15:03:38.330688,0.54986572265625,0.4267578125,0.45263671875,0.55731201171875,0.1953125,0.00390625,-0.08984375,0.021484375,-0.01171875,-0.01171875
2026-09-07T15:03:38.445025,0.5501708984375,0.4268798828125,0.45184326171875,0.5576171875,0.04296875,0.42578125,0.015625,0.01953125,-0.009765625,-0.009765625
2026-09-07T15:03:38.546500,0.55023193359375,0.42633056640625,0.4517822265625,0.5579833984375,0.234375,-0.09765625,0.015625,0.015625,-0.013671875,-0.009765625
2026-09-07T15:03:38.640465,0.5498046875,0.4261474609375,0.45147705078125,0.558837890625,0.1640625,-0.01171875,-0.0234375,-0.00390625,-0.0078125,-0.021484375
2026-09-07T15:03:38.742988,0.549560546875,0.425537109375,0.45159912109375,0.5594482421875,-0.12109375,0.1796875,-0.0390625,0.00390625,-0.0078125,-0.017578125
2026-09-07T15:03:38.961763,0.54864501953125,0.422607421875,0.45281982421875,0.56158447265625,0.07421875,-0.1953125,0.08984375,-0.025390625,-0.013671875,0.021484375
2026-09-07T15:03:39.045937,0.54754638671875,0.42059326171875,0.45379638671875,0.5633544921875,0.1015625,-0.2265625,0.703125,-0.0390625,-0.017578125,0.017578125
2026-09-07T15:03:39.147043,0.5467529296875,0.419189453125,0.4542236328125,0.5648193359375,-0.00390625,-0.40625,0.546875,-0.01953125,-0.015625,-0.001953125
2026-09-07T15:03:39.246690,0.54486083984375,0.41741943359375,0.455322265625,0.5670166015625,0.23046875,-0.76953125,0.28515625,0.00390625,-0.01171875,-0.025390625
2026-09-07T15:03:39.340492,0.54425048828125,0.4161376953125,0.4559326171875,0.568115234375,-0.2265625,-0.16015625,0.0625,0.00390625,-0.009765625,-0.017578125
2026-09-07T15:03:39.447167,0.54437255859375,0.4151611328125,0.45611572265625,0.56854248046875,0.1171875,-0.890625,0.109375,-0.009765625,-0.015625,0.013671875
2026-09-07T15:03:39.547380,0.5445556640625,0.41510009765625,0.45556640625,0.56890869140625,0.26953125,-0.265625,-0.08203125,0.0,-0.015625,-0.0078125
2026-09-07T15:03:39.647725,0.54486083984375,0.4149169921875,0.4549560546875,0.5692138671875,0.01171875,0.23046875,-0.14453125,-0.005859375,-0.015625,0.0234375
2026-09-07T15:03:39.748437,0.54486083984375,0.41485595703125,0.454345703125,0.5697021484375,0.36328125,-0.7890625,-0.05859375,0.0,-0.01171875,-0.005859375
2026-09-07T15:03:39.985337,0.54498291015625,0.41485595703125,0.45379638671875,0.57000732421875,-0.08203125,0.37109375,-0.01171875,0.015625,-0.013671875,0.017578125
2026-09-07T15:03:40.060666,0.54638671875,0.41314697265625,0.4539794921875,0.56982421875,0.38671875,0.0078125,0.08984375,-0.001953125,-0.01171875,0.005859375
2026-09-07T15:03:40.163705,0.54644775390625,0.41290283203125,0.453857421875,0.57000732421875,-0.1875,0.3046875,0.10546875,-0.001953125,-0.01171875,-0.001953125
2026-09-07T15:03:40.263455,0.54681396484375,0.4122314453125,0.45379638671875,0.5701904296875,0.15625,0.203125,0.21875,-0.0078125,-0.017578125,0.01953125
2026-09-07T15:03:40.362206,0.547607421875,0.41143798828125,0.45379638671875,0.57000732421875,0.0546875,-0.3203125,0.04296875,-0.001953125,-0.015625,0.0078125
2026-09-07T15:03:40.464598,0.548095703125,0.41119384765625,0.45330810546875,0.57012939453125,-0.05859375,-0.32421875,0.1640625,-0.0078125,-0.009765625,-0.015625
2026-09-07T15:03:40.563395,0.548095703125,0.4110107421875,0.45281982421875,0.57061767578125,0.046875,-0.4296875,-0.2109375,-0.009765625,-0.015625,0.009765625
2026-09-07T15:03:40.664488,0.54827880859375,0.41033935546875,0.45263671875,0.571044921875,0.5625,-1.03125,-0.03515625,-0.0234375,-0.01171875,-0.0078125
2026-09-07T15:03:40.764491,0.5479736328125,0.41021728515625,0.4521484375,0.57183837890625,-0.2109375,-0.0859375,-0.05859375,-0.01953125,-0.0078125,-0.01171875
2026-09-07T15:03:40.873170,0.5477294921875,0.41015625,0.4515380859375,0.5726318359375,-0.02734375,0.2578125,-0.08203125,-0.01171875,-0.015625,0.0078125
2026-09-07T15:03:40.962942,0.54791259765625,0.409423828125,0.45111083984375,0.57330322265625,-0.109375,0.41015625,0.1796875,-0.001953125,-0.009765625,-0.013671875
2026-09-07T15:03:41.071611,0.54791259765625,0.4095458984375,0.45062255859375,0.57354736328125,-0.25,0.671875,-0.11328125,0.0078125,-0.013671875,-0.005859375
2026-09-07T15:03:41.164495,0.54833984375,0.4093017578125,0.44976806640625,0.57403564453125,0.00390625,0.32421875,-0.15234375,-0.001953125,-0.015625,0.01953125
2026-09-07T15:03:41.263236,0.54840087890625,0.4090576171875,0.44964599609375,0.57427978515625,0.265625,0.13671875,-0.02734375,0.001953125,-0.017578125,-0.00390625
2026-09-07T15:03:41.358291,0.5482177734375,0.40869140625,0.44921875,0.5750732421875,-0.2109375,0.65625,0.01953125,-0.009765625,-0.015625,0.005859375
2026-09-07T15:03:41.463357,0.5479736328125,0.40802001953125,0.4490966796875,0.5758056640625,0.09765625,-0.0546875,-0.09765625,-0.0078125,-0.005859375,-0.015625
2026-09-07T15:03:41.573290,0.5478515625,0.407470703125,0.448974609375,0.57647705078125,-0.1953125,-0.0703125,0.1171875,-0.001953125,-0.0078125,-0.017578125
2026-09-07T15:03:41.660760,0.54718017578125,0.407470703125,0.4481201171875,0.5777587890625,-0.03515625,-0.4921875,0.0703125,0.0,-0.009765625,-0.013671875
2026-09-07T15:03:41.762697,0.5472412109375,0.4073486328125,0.4478759765625,0.5780029296875,-0.1875,-0.3203125,0.5,-0.0078125,-0.009765625,0.0
2026-09-07T15:03:41.863003,0.54766845703125,0.40753173828125,0.447021484375,0.57806396484375,0.11328125,-0.328125,-0.35546875,0.00390625,-0.009765625,-0.01953125
2026-09-07T15:03:41.962012,0.5474853515625,0.4083251953125,0.4459228515625,0.57855224609375,-0.0234375,0.02734375,-0.33203125,0.021484375,-0.005859375,-0.015625
2026-09-07T15:03:42.061887,0.54754638671875,0.40875244140625,0.445068359375,0.57879638671875,-0.015625,0.265625,-0.28515625,0.015625,-0.0078125,-0.001953125
2026-09-07T15:03:42.161591,0.54803466796875,0.409423828125,0.444091796875,0.57861328125,0.3125,-0.39453125,-0.32421875,0.015625,-0.00390625,-0.017578125
2026-09-07T15:03:42.262493,0.5482177734375,0.4107666015625,0.44281005859375,0.5784912109375,-0.1015625,0.2265625,-0.21484375,0.01171875,0.0,-0.009765625
2026-09-07T15:03:42.371331,0.54888916015625,0.41168212890625,0.4420166015625,0.57781982421875,-0.19140625,0.609375,-0.10546875,0.009765625,0.0,0.00390625
2026-09-07T15:03:42.460911,0.551513671875,0.41424560546875,0.43963623046875,0.5753173828125,0.3125,-0.328125,-0.265625,0.001953125,0.00390625,0.005859375
2026-09-07T15:03:42.561566,0.55169677734375,0.41473388671875,0.43927001953125,0.57501220703125,0.359375,-0.08984375,-0.37109375,-0.017578125,0.0,-0.0078125
2026-09-07T15:03:42.661907,0.55255126953125,0.4154052734375,0.43865966796875,0.57421875,0.08203125,0.10546875,0.1875,-0.041015625,-0.0078125,0.00390625
2026-09-07T15:03:42.769795,0.55279541015625,0.41558837890625,0.43829345703125,0.57415771484375,0.07421875,-0.34765625,0.23046875,-0.017578125,-0.001953125,-0.025390625
2026-09-07T15:03:42.855261,0.5518798828125,0.4156494140625,0.43804931640625,0.5750732421875,-0.19921875,0.23828125,0.31640625,-0.03515625,-0.00390625,-0.0078125
2026-09-07T15:03:42.969523,0.55157470703125,0.41558837890625,0.43817138671875,0.57537841796875,-0.32421875,-0.03125,0.27734375,-0.00390625,0.0,-0.015625
2026-09-07T15:03:43.060649,0.551025390625,0.4156494140625,0.43804931640625,0.57598876953125,-0.21484375,-0.2421875,0.18359375,-0.015625,0.0,-0.013671875
2026-09-07T15:03:43.169360,0.55078125,0.4156494140625,0.43798828125,0.57623291015625,-0.17578125,0.37109375,-0.16796875,-0.03125,0.0,0.009765625
2026-09-07T15:03:43.267842,0.550048828125,0.4150390625,0.43841552734375,0.5770263671875,-0.04296875,0.07421875,0.11328125,-0.01953125,-0.001953125,0.0
2026-09-07T15:03:43.360026,0.54913330078125,0.41552734375,0.43792724609375,0.57794189453125,0.015625,-0.15625,-0.015625,-0.0234375,0.0,-0.017578125
2026-09-07T15:03:43.469716,0.5487060546875,0.4158935546875,0.4376220703125,0.57830810546875,-0.25,0.03125,-0.125,-0.001953125,0.001953125,-0.001953125
2026-09-07T15:03:43.568069,0.5479736328125,0.41656494140625,0.43707275390625,0.5789794921875,-0.1953125,0.0703125,0.15234375,-0.00390625,0.001953125,-0.00390625
2026-09-07T15:03:43.669256,0.54736328125,0.4173583984375,0.4364013671875,0.57940673828125,0.03515625,0.23828125,-0.23046875,-0.00390625,0.00390625,0.0
2026-09-07T15:03:43.769566,0.54681396484375,0.4180908203125,0.4359130859375,0.579833984375,-0.1796875,0.484375,-0.29296875,-0.015625,0.00390625,0.00390625
2026-09-07T15:03:43.855987,0.546142578125,0.4188232421875,0.435302734375,0.58038330078125,0.00390625,0.22265625,-0.0703125,-0.02734375,-0.00390625,0.013671875
2026-09-07T15:03:44.085348,0.54443359375,0.4195556640625,0.4349365234375,0.58172607421875,-0.1640625,0.27734375,0.0234375,-0.03125,0.00390625,-0.001953125
2026-09-07T15:03:44.183675,0.544189453125,0.4202880859375,0.434326171875,0.58184814453125,-0.05859375,-0.59765625,0.296875,-0.01953125,0.00390625,-0.001953125
2026-09-07T15:03:44.284155,0.54400634765625,0.42120361328125,0.43359375,0.58197021484375,-0.1484375,0.1328125,-0.4453125,0.009765625,0.005859375,-0.01953125
2026-09-07T15:03:44.383729,0.5438232421875,0.42156982421875,0.433349609375,0.58203125,0.1796875,-0.65625,-0.1953125,0.015625,0.001953125,-0.017578125
2026-09-07T15:03:44.484322,0.54364013671875,0.42266845703125,0.432373046875,0.58209228515625,-0.01953125,-0.5,0.16015625,0.021484375,0.00390625,-0.021484375
2026-09-07T15:03:44.583921,0.5438232421875,0.4232177734375,0.43194580078125,0.5819091796875,-0.35546875,0.20703125,0.10546875,0.0078125,0.001953125,-0.005859375
2026-09-07T15:03:44.683927,0.5440673828125,0.4232177734375,0.43182373046875,0.5816650390625,-0.00390625,0.53515625,-0.0546875,0.0078125,0.0,0.013671875
2026-09-07T15:03:44.783439,0.543701171875,0.42333984375,0.43157958984375,0.58209228515625,0.05078125,0.39453125,0.20703125,-0.009765625,-0.00390625,0.0078125
2026-09-07T15:03:44.884570,0.54351806640625,0.42291259765625,0.4315185546875,0.582763671875,-0.1640625,0.26171875,0.03515625,-0.00390625,-0.009765625,-0.009765625
2026-09-07T15:03:44.984139,0.543212890625,0.42236328125,0.43145751953125,0.58343505859375,0.15625,-0.22265625,0.01171875,-0.009765625,-0.01171875,0.001953125
2026-09-07T15:03:45.084108,0.54248046875,0.422119140625,0.43145751953125,0.58428955078125,-0.2421875,0.40625,0.00390625,-0.00390625,-0.005859375,-0.021484375
2026-09-07T15:03:45.183928,0.54229736328125,0.42132568359375,0.43206787109375,0.5845947265625,-0.234375,0.33203125,-0.12890625,-0.001953125,-0.0078125,0.001953125
2026-09-07T15:03:45.284185,0.5419921875,0.42095947265625,0.432373046875,0.58489990234375,0.203125,-0.4296875,-0.05859375,0.001953125,-0.00390625,0.005859375
2026-09-07T15:03:45.385019,0.54144287109375,0.42138671875,0.43206787109375,0.58538818359375,0.1171875,0.078125,-0.21875,0.01171875,0.00390625,-0.03125
2026-09-07T15:03:45.484718,0.54156494140625,0.42095947265625,0.43243408203125,0.58526611328125,-0.33203125,0.37109375,-0.1015625,-0.001953125,0.0,0.0
2026-09-07T15:03:45.584948,0.5416259765625,0.42059326171875,0.43267822265625,0.58526611328125,0.1484375,-0.4140625,0.10546875,0.001953125,0.0,0.00390625
2026-09-07T15:03:45.684192,0.5416259765625,0.42071533203125,0.4326171875,0.58526611328125,0.04296875,0.19921875,-0.05078125,-0.013671875,0.001953125,-0.001953125
2026-09-07T15:03:45.775703,0.54180908203125,0.4205322265625,0.4327392578125,0.5850830078125,-0.03515625,0.0625,0.296875,-0.00390625,0.001953125,-0.005859375
2026-09-07T15:03:45.885591,0.5421142578125,0.4208984375,0.43231201171875,0.5848388671875,0.06640625,-0.64453125,0.13671875,0.001953125,0.0,-0.015625
2026-09-07T15:03:45.992235,0.54217529296875,0.42138671875,0.431884765625,0.58477783203125,-0.08203125,-0.3203125,-0.01171875,-0.00390625,0.005859375,-0.005859375
2026-09-07T15:03:46.081695,0.54229736328125,0.42138671875,0.43194580078125,0.58465576171875,0.06640625,0.06640625,-0.26171875,0.013671875,-0.001953125,-0.013671875
2026-09-07T15:03:46.181561,0.54241943359375,0.42095947265625,0.43218994140625,0.58465576171875,-0.2109375,0.76171875,0.51953125,0.005859375,-0.0078125,0.015625
2026-09-07T15:03:46.411595,0.54132080078125,0.420654296875,0.431884765625,0.5860595703125,-0.28515625,0.37890625,0.234375,-0.0234375,-0.009765625,-0.005859375
2026-09-07T15:03:46.510588,0.54083251953125,0.420166015625,0.431640625,0.5870361328125,0.14453125,0.41015625,-0.1640625,-0.033203125,-0.015625,-0.001953125
2026-09-07T15:03:46.610265,0.5399169921875,0.41961669921875,0.43145751953125,0.58843994140625,-0.03125,0.36328125,0.5234375,-0.04296875,-0.02734375,-0.0078125
2026-09-07T15:03:46.700257,0.53887939453125,0.4178466796875,0.43170166015625,0.5904541015625,-0.109375,0.40234375,0.4609375,-0.03515625,-0.03515625,0.00390625
2026-09-07T15:03:46.795097,0.5391845703125,0.41693115234375,0.431640625,0.59088134765625,-0.27734375,0.77734375,1.3359375,0.009765625,-0.0390625,-0.00390625
2026-09-07T15:03:46.895649,0.5396728515625,0.415771484375,0.4307861328125,0.591796875,0.2734375,-0.87109375,0.0625,0.017578125,-0.015625,-0.0546875
2026-09-07T15:03:46.995819,0.54010009765625,0.415771484375,0.42919921875,0.59259033203125,0.52734375,-0.10546875,-0.25,-0.015625,-0.025390625,-0.015625
2026-09-07T15:03:47.097102,0.54083251953125,0.4163818359375,0.42724609375,0.59295654296875,0.10546875,-0.41015625,0.84375,0.0234375,-0.01953125,0.00390625
2026-09-07T15:03:47.200622,0.54229736328125,0.4163818359375,0.42596435546875,0.592529296875,0.13671875,0.1640625,-0.375,0.044921875,-0.01171875,0.009765625
2026-09-07T15:03:47.301129,0.54364013671875,0.41619873046875,0.42572021484375,0.591552734375,0.2265625,0.20703125,-0.01171875,0.0234375,0.00390625,0.021484375
2026-09-07T15:03:47.400937,0.5445556640625,0.4161376953125,0.426025390625,0.590576171875,0.40234375,0.0078125,-0.3125,0.01953125,0.001953125,-0.001953125
2026-09-07T15:03:47.500469,0.544677734375,0.41656494140625,0.42572021484375,0.59033203125,0.25390625,-0.7734375,-0.10546875,0.015625,0.001953125,-0.009765625
2026-09-07T15:03:47.596421,0.54522705078125,0.41607666015625,0.42626953125,0.58984375,-0.04296875,-0.58203125,0.02734375,-0.00390625,0.005859375,-0.0078125
2026-09-07T15:03:47.700384,0.54559326171875,0.41619873046875,0.42626953125,0.58941650390625,0.1875,-0.21875,0.21484375,-0.01171875,-0.00390625,0.0
2026-09-07T15:03:47.800633,0.5458984375,0.41619873046875,0.42626953125,0.589111328125,-0.1953125,0.5390625,-0.0859375,-0.01953125,-0.00390625,0.005859375
2026-09-07T15:03:47.900385,0.54632568359375,0.41583251953125,0.42657470703125,0.5887451171875,-0.39453125,0.73046875,0.09765625,-0.015625,0.0,0.025390625
2026-09-07T15:03:48.000164,0.54718017578125,0.415283203125,0.42706298828125,0.5880126953125,0.0703125,0.26171875,-0.1328125,0.013671875,-0.00390625,0.00390625
2026-09-07T15:03:48.107622,0.5479736328125,0.41534423828125,0.42694091796875,0.5872802734375,-0.12890625,0.49609375,0.05078125,0.01171875,-0.001953125,0.0078125
2026-09-07T15:03:48.198172,0.5491943359375,0.4151611328125,0.4271240234375,0.586181640625,-0.21875,0.52734375,-0.2109375,0.0,0.001953125,0.017578125
2026-09-07T15:03:48.308277,0.54962158203125,0.4151611328125,0.4271240234375,0.58575439453125,-0.16796875,0.11328125,-0.234375,0.009765625,0.001953125,-0.009765625
2026-09-07T15:03:48.399495,0.55035400390625,0.4150390625,0.4273681640625,0.5849609375,0.078125,0.16796875,-0.31640625,0.01953125,0.005859375,-0.00390625
2026-09-07T15:03:48.508061,0.55072021484375,0.41497802734375,0.42767333984375,0.58453369140625,0.09375,-0.0625,-0.27734375,-0.00390625,0.0078125,0.0078125
2026-09-07T15:03:48.606907,0.55218505859375,0.4150390625,0.4281005859375,0.58270263671875,0.0390625,-0.375,0.109375,0.01171875,0.0078125,-0.02734375
2026-09-07T15:03:48.706819,0.55291748046875,0.41558837890625,0.42791748046875,0.581787109375,-0.0234375,-0.07421875,-0.07421875,-0.01171875,0.00390625,-0.00390625
2026-09-07T15:03:48.808414,0.5533447265625,0.41558837890625,0.42816162109375,0.5811767578125,-0.19140625,0.0703125,0.19921875,0.005859375,0.001953125,0.0078125
2026-09-07T15:03:48.906761,0.55413818359375,0.4154052734375,0.42840576171875,0.58038330078125,0.046875,-0.16796875,0.5234375,-0.005859375,0.0,0.015625
2026-09-07T15:03:49.006942,0.55438232421875,0.41522216796875,0.4285888671875,0.58013916015625,0.109375,-0.015625,0.015625,-0.03515625,0.00390625,-0.013671875
2026-09-07T15:03:49.114617,0.55364990234375,0.4149169921875,0.42913818359375,0.58062744140625,0.421875,-0.828125,-0.08984375,-0.013671875,0.00390625,0.005859375
2026-09-07T15:03:49.197554,0.55352783203125,0.41461181640625,0.42962646484375,0.58062744140625,0.26171875,-0.62890625,0.24609375,-0.013671875,-0.00390625,0.009765625
2026-09-07T15:03:49.316823,0.5537109375,0.41461181640625,0.4295654296875,0.58050537109375,-0.0078125,-0.0859375,0.26953125,0.005859375,0.00390625,-0.0078125
2026-09-07T15:03:49.405778,0.55419921875,0.414794921875,0.4295654296875,0.57989501953125,0.17578125,-0.90234375,0.08984375,0.02734375,0.001953125,-0.005859375
2026-09-07T15:03:49.516439,0.5543212890625,0.41546630859375,0.42913818359375,0.57965087890625,0.1015625,-0.21875,0.24609375,0.021484375,0.00390625,-0.013671875
2026-09-07T15:03:49.606891,0.5545654296875,0.4158935546875,0.4288330078125,0.57928466796875,-0.07421875,0.2421875,-0.18359375,0.02734375,-0.00390625,0.01171875
2026-09-07T15:03:49.695011,0.55517578125,0.4158935546875,0.4288330078125,0.5787353515625,-0.19921875,0.76171875,0.0625,0.021484375,-0.001953125,0.009765625
2026-09-07T15:03:49.817591,0.555908203125,0.41619873046875,0.428466796875,0.57806396484375,-0.08984375,0.37890625,-0.4609375,0.01171875,0.0,0.0078125
2026-09-07T15:03:49.914392,0.55615234375,0.4163818359375,0.42828369140625,0.577880859375,-0.1875,0.2890625,-0.0234375,0.0234375,0.0,0.01953125
2026-09-07T15:03:50.014443,0.556884765625,0.4163818359375,0.42816162109375,0.57720947265625,0.28515625,-0.40234375,0.359375,0.03125,-0.001953125,-0.0078125
2026-09-07T15:03:50.114361,0.55706787109375,0.41717529296875,0.42742919921875,0.5770263671875,0.27734375,-0.71484375,-0.11328125,0.009765625,0.001953125,-0.009765625
2026-09-07T15:03:50.213810,0.556884765625,0.41790771484375,0.42681884765625,0.5771484375,-0.18359375,0.015625,-0.25,0.001953125,-0.00390625,0.017578125
2026-09-07T15:03:50.314544,0.55712890625,0.41741943359375,0.42724609375,0.576904296875,-0.05078125,0.234375,0.1875,-0.01171875,-0.00390625,0.04296875
2026-09-07T15:03:50.414618,0.55731201171875,0.4169921875,0.42767333984375,0.57672119140625,0.46875,0.05078125,-0.296875,-0.03515625,0.001953125,-0.0078125
2026-09-07T15:03:50.514509,0.5562744140625,0.4171142578125,0.427734375,0.57763671875,0.16796875,-0.10546875,0.1328125,-0.03515625,0.0,-0.00390625
2026-09-07T15:03:50.735951,0.55401611328125,0.416259765625,0.4288330078125,0.57958984375,-0.11328125,0.39453125,-0.14453125,-0.037109375,0.001953125,-0.0078125
2026-09-07T15:03:50.832625,0.5528564453125,0.41546630859375,0.4296875,0.58062744140625,-0.05859375,-0.40234375,0.70703125,-0.021484375,0.0,0.021484375
2026-09-07T15:03:50.932312,0.5528564453125,0.41522216796875,0.42999267578125,0.58056640625,0.33203125,-0.28125,0.05078125,0.015625,0.001953125,-0.005859375
2026-09-07T15:03:51.033007,0.55279541015625,0.41558837890625,0.42974853515625,0.58056640625,0.1015625,-1.2578125,-0.01953125,0.03125,0.0,0.005859375
2026-09-07T15:03:51.122683,0.55328369140625,0.416259765625,0.42919921875,0.58001708984375,-0.38671875,0.15234375,0.12109375,0.05859375,0.0,0.025390625
2026-09-07T15:03:51.236008,0.55242919921875,0.41668701171875,0.42889404296875,0.58074951171875,0.00390625,-0.45703125,-0.5,0.046875,0.00390625,-0.017578125
2026-09-07T15:03:51.333263,0.55206298828125,0.417724609375,0.42822265625,0.58087158203125,-0.2890625,0.37890625,-0.98828125,-0.03515625,0.01171875,-0.033203125
2026-09-07T15:03:51.435224,0.55078125,0.41827392578125,0.42791748046875,0.58184814453125,-0.00390625,-0.48046875,0.28125,-0.04296875,0.001953125,-0.001953125
2026-09-07T15:03:51.535109,0.5511474609375,0.41943359375,0.427001953125,0.5814208984375,-0.01171875,0.1640625,0.28125,-0.03515625,-0.001953125,-0.0078125
2026-09-07T15:03:51.620899,0.55120849609375,0.421142578125,0.4254150390625,0.58123779296875,-0.03125,0.0390625,0.25,-0.02734375,0.001953125,-0.005859375
2026-09-07T15:03:51.722013,0.5509033203125,0.42181396484375,0.42486572265625,0.58148193359375,-0.17578125,0.33984375,0.18359375,-0.00390625,0.0,0.0078125
2026-09-07T15:03:51.821715,0.55029296875,0.42205810546875,0.42474365234375,0.58197021484375,-0.0703125,-0.22265625,0.21484375,0.00390625,0.00390625,-0.0078125
2026-09-07T15:03:51.921661,0.54949951171875,0.4224853515625,0.4244384765625,0.58258056640625,0.015625,0.03125,-0.16015625,0.00390625,0.00390625,-0.013671875
2026-09-07T15:03:52.020883,0.54864501953125,0.4227294921875,0.4241943359375,0.5833740234375,0.0234375,0.0703125,-0.1328125,-0.00390625,0.001953125,-0.005859375
2026-09-07T15:03:52.121106,0.54791259765625,0.423095703125,0.42388916015625,0.58404541015625,-0.0546875,0.4375,-0.1328125,-0.0078125,0.0,-0.009765625
2026-09-07T15:03:52.237243,0.547119140625,0.42327880859375,0.423828125,0.584716796875,-0.0234375,0.4296875,0.05859375,-0.015625,0.0,0.0078125
2026-09-07T15:03:52.336712,0.5467529296875,0.423095703125,0.42401123046875,0.58502197265625,0.390625,-0.3125,-0.03125,-0.009765625,0.001953125,0.0078125
2026-09-07T15:03:52.436193,0.54638671875,0.4232177734375,0.4239501953125,-1.4146728515625,0.01953125,-0.46484375,0.0,0.009765625,0.00390625,-0.01953125
2026-09-07T15:03:52.535937,0.5460205078125,0.42352294921875,0.423828125,0.5855712890625,0.16796875,-0.15234375,-0.0703125,-0.00390625,0.0,-0.009765625
2026-09-07T15:03:52.627442,0.54559326171875,0.42315673828125,0.4241943359375,0.58587646484375,-0.41796875,0.70703125,0.08984375,-0.01171875,0.001953125,0.0078125
2026-09-07T15:03:52.735534,0.54541015625,0.42254638671875,0.42486572265625,0.5860595703125,-0.15625,0.52734375,0.28125,0.013671875,0.0,-0.005859375
2026-09-07T15:03:52.835775,0.5457763671875,0.4227294921875,0.4246826171875,0.58575439453125,-0.171875,-0.25390625,-0.02734375,0.0234375,0.0,-0.001953125
2026-09-07T15:03:52.935943,0.54608154296875,0.42279052734375,0.4246826171875,0.58538818359375,0.01953125,-0.60546875,-0.0859375,0.0234375,0.00390625,-0.001953125
2026-09-07T15:03:53.036156,0.546142578125,0.4228515625,0.4248046875,0.585205078125,0.08984375,0.1484375,-0.19921875,0.021484375,0.00390625,-0.005859375
2026-09-07T15:03:53.128138,0.5465087890625,0.4228515625,0.4249267578125,0.58477783203125,0.1953125,-0.2421875,-0.125,0.0234375,0.001953125,0.00390625
2026-09-07T15:03:53.234033,0.54730224609375,0.4229736328125,0.4248046875,0.58404541015625,-0.1015625,0.4765625,-0.30859375,0.03515625,0.001953125,-0.00390625
2026-09-07T15:03:53.336229,0.5479736328125,0.4232177734375,0.42449951171875,0.5833740234375,-0.01171875,0.03125,0.10546875,0.013671875,0.0,0.0078125
2026-09-07T15:03:53.436087,0.54876708984375,0.4232177734375,0.4246826171875,0.58258056640625,-0.15625,0.03125,0.28515625,0.017578125,0.0,0.009765625
2026-09-07T15:03:53.535826,0.54949951171875,0.4227294921875,0.4251708984375,0.5819091796875,0.2109375,-0.09375,-0.03125,0.009765625,0.0,0.0078125
2026-09-07T15:03:53.636907,0.5498046875,0.42218017578125,0.4256591796875,0.58160400390625,-0.06640625,-0.05859375,0.03125,-0.013671875,0.001953125,0.005859375
2026-09-07T15:03:53.736560,0.54986572265625,0.42169189453125,0.42620849609375,0.58154296875,-0.1875,0.37109375,-0.12109375,-0.01953125,0.0,0.015625
2026-09-07T15:03:53.836519,0.54962158203125,0.42120361328125,0.42681884765625,0.5816650390625,-0.12109375,-0.1484375,-0.25390625,0.0078125,0.001953125,-0.0078125
2026-09-07T15:03:53.936314,0.549560546875,0.420654296875,0.42742919921875,0.5816650390625,0.05078125,-0.08984375,0.14453125,-0.001953125,0.0,0.005859375
2026-09-07T15:03:54.036720,0.54974365234375,0.420166015625,0.42791748046875,0.58148193359375,-0.1484375,-0.05078125,0.0390625,0.0078125,0.0,0.0078125
2026-09-07T15:03:54.143772,0.5498046875,0.420166015625,0.4281005859375,0.581298828125,-0.234375,0.14453125,-0.109375,0.017578125,0.0,-0.0078125
2026-09-07T15:03:54.233323,0.55010986328125,0.4205322265625,0.42779541015625,0.58099365234375,-0.03515625,-0.25390625,0.02734375,0.009765625,-0.005859375,0.00390625
2026-09-07T15:03:54.344770,0.55023193359375,0.42071533203125,0.42755126953125,0.5809326171875,-0.2109375,0.26171875,-0.0078125,0.0078125,0.0,-0.001953125
2026-09-07T15:03:54.436525,0.550048828125,0.420654296875,0.427490234375,0.5811767578125,-0.1875,0.5703125,-0.26953125,-0.001953125,0.0,0.005859375
2026-09-07T15:03:54.545558,0.5498046875,0.42041015625,0.42767333984375,0.58148193359375,0.00390625,0.046875,-0.19140625,-0.005859375,-0.001953125,-0.013671875
2026-09-07T15:03:54.645166,0.54864501953125,0.42041015625,0.4276123046875,0.58258056640625,0.05078125,0.1953125,-0.3203125,-0.033203125,0.005859375,-0.0234375
2026-09-07T15:03:54.744209,0.54766845703125,0.42047119140625,0.42755126953125,0.58343505859375,-0.125,-0.37109375,0.046875,-0.015625,0.001953125,-0.01953125
2026-09-07T15:03:54.833588,0.5469970703125,0.42083740234375,0.42724609375,0.5841064453125,0.234375,-0.53125,-0.31640625,-0.01171875,0.0,-0.03515625
2026-09-07T15:03:54.934846,0.54656982421875,0.4212646484375,0.4268798828125,0.58441162109375,-0.03515625,-0.12890625,0.18359375,0.013671875,0.005859375,-0.0234375
2026-09-07T15:03:55.034706,0.54644775390625,0.42156982421875,0.42669677734375,0.58447265625,-0.140625,0.4375,0.19140625,0.00390625,-0.001953125,0.01953125
2026-09-07T15:03:55.133097,0.54705810546875,0.421142578125,0.42706298828125,0.58392333984375,0.21875,0.2265625,0.06640625,0.017578125,-0.00390625,0.02734375
2026-09-07T15:03:55.243580,0.54791259765625,0.42083740234375,0.4273681640625,0.58319091796875,-0.01171875,0.56640625,-0.1171875,0.029296875,-0.00390625,0.01953125
2026-09-07T15:03:55.333572,0.54949951171875,0.42034912109375,0.4276123046875,0.581787109375,0.02734375,-0.109375,0.2265625,0.044921875,-0.005859375,0.015625
2026-09-07T15:03:55.434502,0.5499267578125,0.42041015625,0.42742919921875,0.5814208984375,-0.01953125,-0.01171875,-0.30078125,0.005859375,0.0,0.01171875
2026-09-07T15:03:55.535060,0.55072021484375,0.41998291015625,0.427734375,0.580810546875,-0.19140625,0.12109375,-0.0078125,0.015625,0.0,0.01171875
2026-09-07T15:03:55.632815,0.55169677734375,0.41949462890625,0.42803955078125,0.58001708984375,-0.16796875,0.328125,-0.109375,0.029296875,0.001953125,0.015625
2026-09-07T15:03:55.734044,0.55255126953125,0.41925048828125,0.42852783203125,0.57904052734375,0.015625,-0.30078125,-0.55859375,-0.0078125,0.013671875,-0.005859375
2026-09-07T15:03:55.834045,0.5528564453125,0.4195556640625,0.42889404296875,0.57830810546875,-0.22265625,-0.19921875,-0.03515625,-0.01953125,0.005859375,-0.015625
2026-09-07T15:03:55.941118,0.55389404296875,0.41937255859375,0.4293212890625,0.5770263671875,0.15234375,-0.19140625,0.02734375,0.00390625,0.001953125,-0.0078125
2026-09-07T15:03:56.032974,0.55413818359375,0.41961669921875,0.42926025390625,0.57666015625,-0.12109375,-0.03125,0.1171875,-0.009765625,0.005859375,-0.005859375
2026-09-07T15:03:56.130938,0.55419921875,0.41973876953125,0.42919921875,0.57659912109375,0.078125,-0.2890625,0.26953125,-0.00390625,0.005859375,-0.013671875
2026-09-07T15:03:56.241458,0.55438232421875,0.41998291015625,0.42919921875,0.5762939453125,-0.20703125,0.61328125,0.03125,0.01171875,0.001953125,0.017578125
2026-09-07T15:03:56.333452,0.5550537109375,0.419677734375,0.4295654296875,0.57550048828125,-0.02734375,0.3203125,-0.07421875,0.015625,0.005859375,-0.005859375
2026-09-07T15:03:56.441665,0.5550537109375,0.41973876953125,0.42962646484375,0.575439453125,0.0859375,0.12890625,0.16015625,-0.001953125,0.001953125,0.013671875
2026-09-07T15:03:56.539654,0.55487060546875,0.41925048828125,0.43023681640625,0.57550048828125,-0.23828125,-0.01171875,-0.0078125,0.0,0.001953125,0.001953125
2026-09-07T15:03:56.629183,0.5546875,0.4190673828125,0.430419921875,0.57574462890625,0.1015625,-0.29296875,0.0234375,-0.0078125,0.251953125,-0.015625
2026-09-07T15:03:56.742093,0.55450439453125,0.41900634765625,0.43048095703125,0.57586669921875,0.12109375,-0.3671875,0.0546875,0.01171875,-0.005859375,-0.001953125
2026-09-07T15:03:56.841272,0.55450439453125,0.41876220703125,0.43084716796875,0.5758056640625,-0.17578125,0.0625,0.13671875,0.00390625,0.005859375,-0.013671875
2026-09-07T15:03:56.941506,0.5540771484375,0.41864013671875,0.4310302734375,0.576171875,-0.17578125,0.3671875,-0.4609375,-0.01171875,-0.001953125,-0.005859375
2026-09-07T15:03:57.041026,0.55364990234375,0.4185791015625,0.43109130859375,0.57659912109375,0.03125,0.24609375,-0.3125,-0.017578125,0.001953125,-0.005859375
2026-09-07T15:03:57.141692,0.55322265625,0.41827392578125,0.43133544921875,0.57696533203125,-0.03125,0.01953125,0.24609375,-0.0078125,-0.00390625,-0.009765625
2026-09-07T15:03:57.249138,0.5528564453125,0.41778564453125,0.4317626953125,0.577392578125,-0.0390625,0.453125,-0.14453125,0.0,-0.005859375,0.005859375
2026-09-07T15:03:57.340568,0.5528564453125,0.41748046875,0.43194580078125,0.5775146484375,0.1171875,0.0390625,0.06640625,-0.005859375,-0.00390625,0.005859375
2026-09-07T15:03:57.449824,0.55267333984375,0.41705322265625,0.43218994140625,0.5777587890625,-0.11328125,0.4609375,-0.0625,-0.021484375,0.00390625,0.01171875
2026-09-07T15:03:57.540496,0.55242919921875,0.41650390625,0.4326171875,0.57806396484375,0.19921875,-0.04296875,0.01171875,-0.001953125,-0.00390625,0.01953125
2026-09-07T15:03:57.628511,0.5526123046875,0.41619873046875,0.432861328125,0.57794189453125,0.18359375,-0.33984375,0.19921875,0.01953125,-0.00390625,0.009765625
2026-09-07T15:03:57.751820,0.5537109375,0.41644287109375,0.432373046875,0.5770263671875,0.015625,-0.26171875,0.265625,0.02734375,-0.00390625,0.015625
2026-09-07T15:03:57.847848,0.5540771484375,0.4163818359375,0.432373046875,0.5767822265625,-0.2734375,0.18359375,0.2890625,0.021484375,0.0,0.017578125
2026-09-07T15:03:57.947919,0.5545654296875,0.4163818359375,0.432373046875,0.5762939453125,0.109375,-0.0546875,-0.28515625,0.001953125,0.005859375,-0.0234375
2026-09-07T15:03:58.158770,0.55419921875,0.4169921875,0.43170166015625,0.57672119140625,0.10546875,-0.55859375,-0.10546875,-0.0078125,0.0,-0.0078125
2026-09-07T15:03:58.255165,0.5545654296875,0.417236328125,0.43133544921875,0.57647705078125,0.0390625,0.1328125,-0.17578125,0.00390625,0.0,0.0
2026-09-07T15:03:58.355028,0.5546875,0.41717529296875,0.43133544921875,0.57635498046875,-0.08984375,0.34765625,-0.09765625,-0.001953125,-0.001953125,0.0
2026-09-07T15:03:58.451400,0.5545654296875,0.41705322265625,0.43157958984375,0.576416015625,-0.16796875,0.28515625,0.125,0.001953125,0.0,0.0
2026-09-07T15:03:58.547505,0.554443359375,0.41693115234375,0.43157958984375,0.57659912109375,-0.13671875,-0.0703125,-0.06640625,-0.009765625,-0.00390625,-0.00390625
2026-09-07T15:03:58.644269,0.55450439453125,0.4169921875,0.43145751953125,0.57659912109375,0.0390625,0.22265625,-0.3125,-0.005859375,-0.00390625,0.001953125
2026-09-07T15:03:58.752235,0.554443359375,0.41632080078125,0.43206787109375,0.57672119140625,0.078125,0.3515625,-0.06640625,-0.0078125,-0.001953125,0.009765625
2026-09-07T15:03:58.851222,0.55413818359375,0.415771484375,0.43267822265625,0.57696533203125,0.14453125,0.16796875,-0.3125,-0.009765625,0.00390625,-0.001953125
2026-09-07T15:03:58.952056,0.55352783203125,0.41534423828125,0.43316650390625,0.5775146484375,0.09765625,-0.34765625,-0.09765625,-0.025390625,0.00390625,-0.005859375
2026-09-07T15:03:59.052715,0.552978515625,0.4149169921875,0.43353271484375,0.5780029296875,-0.22265625,0.23046875,0.046875,-0.01953125,0.0,-0.015625
2026-09-07T15:03:59.152378,0.5535888671875,0.4141845703125,0.43408203125,0.57757568359375,-0.125,0.19140625,0.06640625,-0.00390625,-0.001953125,0.015625
2026-09-07T15:03:59.252017,0.5538330078125,0.4139404296875,0.43426513671875,0.57733154296875,0.22265625,-0.03125,0.12890625,0.0078125,-0.00390625,-0.001953125
2026-09-07T15:03:59.352344,0.55389404296875,0.41363525390625,0.43463134765625,0.5772705078125,-0.15625,0.57421875,-0.15625,0.00390625,0.001953125,0.0
2026-09-07T15:03:59.452247,0.55401611328125,0.41302490234375,0.4351806640625,0.57720947265625,0.01171875,0.59765625,-0.29296875,0.0,-0.00390625,0.013671875
2026-09-07T15:03:59.548158,0.55389404296875,0.4119873046875,0.43609619140625,0.57733154296875,-0.01171875,0.609375,-0.34765625,-0.025390625,0.0,0.017578125
2026-09-07T15:03:59.651588,0.5535888671875,0.410888671875,0.43695068359375,0.5777587890625,0.06640625,0.06640625,0.08203125,-0.28125,-0.005859375,0.015625
2026-09-07T15:03:59.752023,0.5538330078125,0.40972900390625,0.4376220703125,0.57781982421875,-0.1171875,0.2265625,0.2421875,-0.02734375,-0.00390625,0.0234375
2026-09-07T15:03:59.851997,0.5538330078125,0.408203125,0.43878173828125,0.5780029296875,-0.07421875,0.0703125,0.06640625,-0.02734375,-0.005859375,0.021484375
2026-09-07T15:03:59.951514,0.5533447265625,0.4071044921875,0.439697265625,0.57861328125,0.1875,-0.859375,0.32421875,-0.03515625,-0.00390625,0.01171875
2026-09-07T15:04:00.043498,0.55328369140625,0.4063720703125,0.440185546875,0.57879638671875,-0.06640625,0.31640625,-0.10546875,0.0,-0.00390625,-0.001953125
2026-09-07T15:04:00.150791,0.5535888671875,0.4052734375,0.44097900390625,0.57867431640625,-0.1484375,0.15625,0.29296875,-0.0078125,-0.005859375,0.021484375
2026-09-07T15:04:00.252708,0.5538330078125,0.40460205078125,0.44134521484375,0.57861328125,0.08984375,-0.01953125,0.15625,0.017578125,-0.005859375,0.0078125
2026-09-07T15:04:00.352142,0.55377197265625,0.40435791015625,0.44146728515625,0.57879638671875,-0.08203125,-0.3359375,0.32421875,0.001953125,-0.005859375,0.00390625
2026-09-07T15:04:00.452192,0.55328369140625,0.4041748046875,0.44146728515625,0.579345703125,-0.05859375,0.08984375,-0.11328125,0.005859375,-0.001953125,-0.013671875
2026-09-07T15:04:00.552897,0.55267333984375,0.40350341796875,0.44189453125,0.580078125,-0.140625,0.00390625,-0.1796875,-0.01953125,-0.001953125,-0.00390625
2026-09-07T15:04:00.644463,0.5518798828125,0.402587890625,0.442626953125,0.58087158203125,0.109375,0.12109375,-0.1875,-0.03125,-0.001953125,0.001953125
2026-09-07T15:04:00.752579,0.551025390625,0.40155029296875,0.44354248046875,0.58172607421875,0.1171875,-0.05078125,0.1640625,-0.044921875,-0.001953125,0.009765625
2026-09-07T15:04:00.852903,0.55096435546875,0.40118408203125,0.44366455078125,0.5819091796875,0.29296875,-0.234375,0.2734375,-0.021484375,-0.001953125,0.00390625
2026-09-07T15:04:00.952159,0.55120849609375,0.401611328125,0.44317626953125,0.58184814453125,-0.04296875,-0.2109375,0.1875,0.01953125,-0.00390625,-0.015625
2026-09-07T15:04:01.052698,0.5513916015625,0.40155029296875,0.44317626953125,0.58160400390625,-0.35546875,0.07421875,0.046875,0.01953125,0.0,-0.013671875
2026-09-07T15:04:01.151728,0.5516357421875,0.4010009765625,0.4437255859375,0.58135986328125,-0.10546875,0.27734375,-0.26953125,0.009765625,0.0,0.015625
2026-09-07T15:04:01.261761,0.55224609375,0.4002685546875,0.44427490234375,0.58087158203125,0.25,0.12109375,0.078125,0.009765625,-0.005859375,0.025390625
2026-09-07T15:04:01.347999,0.55267333984375,0.4000244140625,0.44439697265625,0.58056640625,0.0703125,-0.1640625,-0.13671875,0.00390625,-0.00390625,0.001953125
2026-09-07T15:04:01.449271,0.552734375,0.4000244140625,0.44439697265625,0.58050537109375,-0.08203125,-0.3046875,-0.28125,-0.0078125,0.001953125,-0.01171875
2026-09-07T15:04:01.549896,0.55255126953125,0.4000244140625,0.4444580078125,0.58062744140625,-0.07421875,0.05859375,-0.02734375,-0.01171875,0.001953125,0.009765625
2026-09-07T15:04:01.645132,0.55322265625,0.39984130859375,0.44488525390625,0.57977294921875,0.1015625,-0.27734375,-0.140625,0.0,-0.001953125,0.017578125
2026-09-07T15:04:01.750519,0.55340576171875,0.40008544921875,0.44476318359375,0.57952880859375,0.18359375,-0.078125,0.08203125,-0.0078125,0.001953125,-0.00390625
2026-09-07T15:04:01.849850,0.553955078125,0.4002685546875,0.444580078125,0.57904052734375,-0.07421875,-0.0625,0.45703125,-0.00390625,-0.001953125,0.0078125
2026-09-07T15:04:01.949878,0.5550537109375,0.4000244140625,0.444580078125,0.578125,-0.0078125,0.2890625,0.1171875,0.03515625,-0.00390625,0.017578125
2026-09-07T15:04:02.049680,0.55584716796875,0.39990234375,0.44464111328125,0.57745361328125,0.0703125,-0.515625,-0.08203125,0.005859375,0.00390625,0.0078125
2026-09-07T15:04:02.148427,0.5562744140625,0.39996337890625,0.44464111328125,0.57696533203125,-0.046875,-0.078125,-0.13671875,0.013671875,0.0,-0.001953125
2026-09-07T15:04:02.250944,0.55706787109375,0.39971923828125,0.44488525390625,0.57611083984375,-0.15234375,0.375,-0.04296875,0.015625,0.00390625,0.009765625
2026-09-07T15:04:02.349748,0.5577392578125,0.39990234375,0.44488525390625,0.575439453125,0.12890625,-0.0859375,0.08984375,0.013671875,0.001953125,-0.001953125
2026-09-07T15:04:02.450088,0.55853271484375,0.400146484375,0.4447021484375,0.5745849609375,-0.125,0.3046875,-0.03125,0.0234375,-0.001953125,0.009765625
2026-09-07T15:04:02.550117,0.55914306640625,0.39984130859375,0.445068359375,0.57391357421875,0.4375,-0.140625,-0.0234375,-0.009765625,0.00390625,0.001953125
2026-09-07T15:04:02.644418,0.55938720703125,0.3997802734375,0.4453125,0.57354736328125,-0.28515625,-0.1171875,0.22265625,0.0,0.001953125,-0.0078125
2026-09-07T15:04:02.749873,0.55999755859375,0.39923095703125,0.44586181640625,0.57293701171875,0.25,-0.33203125,-0.078125,-0.009765625,0.0,0.015625
2026-09-07T15:04:02.849881,0.56011962890625,0.39892578125,0.4462890625,0.5726318359375,0.3515625,-0.34765625,-0.23046875,-0.01171875,0.00390625,-0.005859375
2026-09-07T15:04:02.956582,0.55999755859375,0.39910888671875,0.44635009765625,0.5726318359375,-0.2109375,0.08203125,-0.0546875,-0.013671875,0.00390625,-0.0078125
2026-09-07T15:04:03.048919,0.56036376953125,0.3988037109375,0.44683837890625,0.57208251953125,-0.0078125,0.05859375,0.16015625,-0.015625,0.0078125,0.015625
2026-09-07T15:04:03.157272,0.56072998046875,0.3983154296875,0.447509765625,0.571533203125,0.12890625,-0.109375,0.3203125,0.0,0.00390625,0.009765625
2026-09-07T15:04:03.248441,0.56085205078125,0.398193359375,0.4478759765625,0.57122802734375,0.328125,-0.29296875,-0.0859375,-0.013671875,0.00390625,-0.005859375
2026-09-07T15:04:03.356721,0.560791015625,0.3983154296875,0.44793701171875,0.5711669921875,0.00390625,-0.0546875,-0.25390625,0.001953125,0.0078125,-0.013671875
2026-09-07T15:04:03.456423,0.5609130859375,0.39801025390625,0.44842529296875,0.5709228515625,-0.21875,0.46875,-0.1171875,-0.01171875,0.0,0.029296875
2026-09-07T15:04:03.556277,0.5614013671875,0.3970947265625,0.44952392578125,0.5701904296875,-0.00390625,0.359375,0.51171875,0.0078125,0.0,0.01953125
2026-09-07T15:04:03.655728,0.56201171875,0.39654541015625,0.4500732421875,0.56951904296875,0.2265625,0.3203125,-0.140625,0.02734375,0.0,0.00390625
2026-09-07T15:04:03.757311,0.56231689453125,0.39605712890625,0.4505615234375,0.56915283203125,0.1484375,-0.171875,-0.00390625,-0.00390625,0.0,-0.001953125
2026-09-07T15:04:03.857526,0.56231689453125,0.395263671875,0.45111083984375,0.56927490234375,-0.1875,0.1171875,-0.234375,0.005859375,-0.00390625,0.009765625
2026-09-07T15:04:03.957525,0.5626220703125,0.39459228515625,0.451416015625,0.56915283203125,-0.12109375,0.625,-0.2421875,-0.021484375,0.001953125,-0.00390625
2026-09-07T15:04:04.044985,0.561767578125,0.3935546875,0.452392578125,0.57000732421875,-0.03515625,-0.2109375,-0.41015625,-0.03125,0.0,-0.0078125
2026-09-07T15:04:04.160325,0.5606689453125,0.39263916015625,0.45318603515625,0.571044921875,-0.51953125,0.06640625,0.28125,-0.03515625,0.001953125,0.0
2026-09-07T15:04:04.259368,0.5601806640625,0.39276123046875,0.45281982421875,0.57171630859375,-0.43359375,0.4453125,-0.42578125,-0.001953125,0.001953125,-0.013671875
2026-09-07T15:04:04.360162,0.56005859375,0.3927001953125,0.45294189453125,0.57183837890625,-0.09765625,-0.14453125,0.44140625,-0.03125,0.001953125,0.017578125
2026-09-07T15:04:04.458989,0.5596923828125,0.391845703125,0.4537353515625,0.5721435546875,0.05078125,-0.09375,0.42578125,-0.00390625,-0.005859375,0.013671875
2026-09-07T15:04:04.556379,0.5599365234375,0.39117431640625,0.45416259765625,0.57196044921875,0.16015625,-0.0234375,0.23828125,0.009765625,-0.005859375,-0.005859375
2026-09-07T15:04:04.659468,0.55877685546875,0.39202880859375,0.45330810546875,0.5732421875,0.03125,-0.23828125,0.09375,0.01953125,-0.00390625,-0.009765625
2026-09-07T15:04:04.759738,0.5584716796875,0.39227294921875,0.45294189453125,0.5736083984375,-0.30859375,0.3046875,-0.26171875,0.0234375,-0.009765625,0.0078125
2026-09-07T15:04:04.859780,0.5577392578125,0.3922119140625,0.45269775390625,0.57464599609375,0.0078125,0.12109375,-0.0234375,0.021484375,-0.00390625,-0.013671875
2026-09-07T15:04:04.959139,0.5574951171875,0.39263916015625,0.45196533203125,0.5750732421875,-0.17578125,0.66015625,-0.51171875,0.021484375,-0.005859375,-0.01171875
2026-09-07T15:04:05.044995,0.557373046875,0.39251708984375,0.45184326171875,0.57550048828125,-0.0859375,0.15234375,-0.05859375,0.0,-0.00390625,0.0234375
2026-09-07T15:04:05.160968,0.5572509765625,0.3919677734375,0.4520263671875,0.57574462890625,0.12890625,0.2421875,-0.08984375,-0.0078125,-0.009765625,0.021484375
2026-09-07T15:04:05.260232,0.55718994140625,0.39202880859375,0.45184326171875,0.575927734375,-0.0390625,-0.1953125,-0.2265625,0.01953125,0.00390625,-0.009765625
2026-09-07T15:04:05.359226,0.55755615234375,0.39300537109375,0.45111083984375,0.57550048828125,-0.33984375,-0.19140625,0.1015625,0.033203125,0.00390625,-0.01171875
2026-09-07T15:04:05.459586,0.55804443359375,0.39422607421875,0.45025634765625,0.5748291015625,-0.421875,0.44921875,-0.1328125,0.0,0.009765625,0.0078125
2026-09-07T15:04:05.558190,0.55841064453125,0.3946533203125,0.4500732421875,0.5743408203125,0.03125,0.03125,-0.17578125,-0.01171875,0.001953125,0.017578125
2026-09-07T15:04:05.659984,0.55902099609375,0.3953857421875,0.44964599609375,0.5736083984375,0.03515625,0.01171875,0.0703125,-0.013671875,0.00390625,-0.005859375
2026-09-07T15:04:05.759298,0.55987548828125,0.39678955078125,0.4483642578125,0.57275390625,0.03515625,0.1015625,-0.0390625,-0.01171875,0.001953125,-0.009765625
2026-09-07T15:04:05.859952,0.55999755859375,0.39752197265625,0.44781494140625,0.57257080078125,0.19140625,-0.47265625,0.7109375,0.041015625,-0.001953125,-0.0078125
2026-09-07T15:04:05.959907,0.5609130859375,0.39837646484375,0.44708251953125,0.57159423828125,0.3984375,-0.5625,-0.09375,0.03515625,0.005859375,-0.005859375
2026-09-07T15:04:06.051849,0.5618896484375,0.39959716796875,0.44610595703125,0.570556640625,-0.0234375,0.15234375,-0.28515625,0.02734375,0.00390625,-0.00390625
2026-09-07T15:04:06.159752,0.5626220703125,0.39996337890625,0.44598388671875,0.56976318359375,-0.09765625,0.515625,-0.5546875,0.03515625,0.001953125,0.0078125
2026-09-07T15:04:06.260050,0.56304931640625,0.39984130859375,0.446044921875,0.5693359375,0.015625,0.63671875,-0.09375,-0.015625,0.0,0.017578125
2026-09-07T15:04:06.359846,0.56298828125,0.39996337890625,0.4459228515625,0.56939697265625,-0.03125,-0.76953125,0.359375,-0.015625,-0.001953125,-0.009765625
2026-09-07T15:04:06.459848,0.5625,0.400390625,0.44549560546875,0.5699462890625,-0.3125,-0.29296875,-0.015625,-0.009765625,0.00390625,-0.029296875
2026-09-07T15:04:06.552505,0.5537109375,0.40087890625,0.445068359375,0.57086181640625,-0.234375,0.12890625,-0.08984375,-0.03515625,0.00390625,0.00390625
2026-09-07T15:04:06.668514,0.5609130859375,0.401611328125,0.4444580078125,0.57147216796875,-0.1015625,0.72265625,0.15234375,-0.0234375,-0.001953125,0.03125
2026-09-07T15:04:06.758835,0.559814453125,0.4034423828125,0.44268798828125,0.57257080078125,0.2109375,0.12109375,0.12109375,-0.001953125,-0.001953125,0.02734375
2026-09-07T15:04:06.868501,0.55926513671875,0.40386962890625,0.4423828125,0.57305908203125,0.21875,-0.60546875,-0.0859375,-0.0078125,0.005859375,-0.009765625
2026-09-07T15:04:06.967471,0.5582275390625,0.40472412109375,0.44195556640625,0.57379150390625,0.01953125,-0.59765625,-0.25390625,-0.02734375,0.00390625,0.009765625
2026-09-07T15:04:07.058573,0.5574951171875,0.4049072265625,0.4420166015625,0.57427978515625,-0.234375,0.265625,-0.29296875,0.001953125,0.00390625,-0.015625
2026-09-07T15:04:07.152164,0.55731201171875,0.40509033203125,0.4420166015625,0.57440185546875,-0.44140625,0.1015625,-0.046875,-0.001953125,0.00390625,-0.005859375
2026-09-07T15:04:07.269054,0.5570068359375,0.40606689453125,0.44140625,0.57452392578125,-0.6015625,0.1015625,-0.15625,-0.005859375,0.00390625,0.0078125
2026-09-07T15:04:07.357286,0.55682373046875,0.40606689453125,0.44189453125,0.57427978515625,-0.1796875,0.04296875,-0.28515625,-0.015625,0.005859375,0.009765625
2026-09-07T15:04:07.468308,0.556396484375,0.40618896484375,0.4420166015625,0.574462890625,-0.09765625,0.46484375,-0.25390625,-0.021484375,0.0078125,-0.00390625
2026-09-07T15:04:07.557051,0.5557861328125,0.4071044921875,0.4417724609375,0.57464599609375,-0.51171875,0.73828125,-0.109375,-0.021484375,0.0078125,0.01171875
2026-09-07T15:04:07.657075,0.5562744140625,0.408203125,0.44085693359375,0.5740966796875,0.01171875,-0.58984375,-0.0234375,0.0234375,0.00390625,-0.0078125
2026-09-07T15:04:07.758040,0.556396484375,0.40960693359375,0.43988037109375,0.57366943359375,0.1953125,-0.04296875,-0.21484375,0.029296875,0.0078125,-0.0234375
2026-09-07T15:04:07.857724,0.55633544921875,0.410888671875,0.43914794921875,0.5733642578125,-0.34765625,0.39453125,-0.03125,0.00390625,0.005859375,0.0
2026-09-07T15:04:07.957749,0.55633544921875,0.41156005859375,0.43902587890625,0.57305908203125,-0.1015625,0.2890625,-0.3125,0.0078125,0.005859375,0.009765625
2026-09-07T15:04:08.058135,0.556396484375,0.4119873046875,0.43890380859375,0.57275390625,-0.1015625,0.4609375,0.0703125,0.005859375,0.005859375,0.005859375
2026-09-07T15:04:08.154154,0.5565185546875,0.4124755859375,0.43878173828125,0.5723876953125,0.203125,-0.140625,0.22265625,-0.00390625,0.01171875,-0.0078125
2026-09-07T15:04:08.258061,0.55645751953125,0.4130859375,0.43865966796875,0.57208251953125,0.07421875,-0.56640625,0.0625,0.0078125,0.01171875,-0.013671875
2026-09-07T15:04:08.357980,0.556396484375,0.4139404296875,0.43829345703125,0.57183837890625,-0.00390625,-0.4765625,0.16796875,0.021484375,0.005859375,-0.005859375
2026-09-07T15:04:08.457297,0.556884765625,0.41455078125,0.43804931640625,0.57110595703125,0.02734375,0.26953125,-0.23046875,0.009765625,0.005859375,0.005859375
2026-09-07T15:04:08.563928,0.55712890625,0.414794921875,0.43817138671875,0.57061767578125,0.3515625,-0.328125,0.046875,-0.00390625,0.005859375,0.001953125
2026-09-07T15:04:08.654501,0.55712890625,0.415283203125,0.43804931640625,0.5703125,-0.046875,-0.27734375,-0.12109375,-0.00390625,0.005859375,0.013671875
2026-09-07T15:04:08.883160,0.55535888671875,0.4150390625,0.4385986328125,0.57177734375,0.11328125,0.07421875,-0.015625,-0.0234375,0.0,-0.005859375
2026-09-07T15:04:08.978260,0.55450439453125,0.414306640625,0.4390869140625,0.57275390625,0.12890625,-0.22265625,-0.015625,-0.009765625,-0.00390625,0.0
2026-09-07T15:04:09.079565,0.55340576171875,0.414306640625,0.43914794921875,0.57379150390625,0.2265625,-0.359375,-0.1640625,-0.015625,-0.001953125,-0.00390625
2026-09-07T15:04:09.179641,0.55230712890625,0.41412353515625,0.4395751953125,0.57470703125,0.04296875,-0.3046875,0.04296875,-0.0390625,0.005859375,0.00390625
2026-09-07T15:04:09.275612,0.5511474609375,0.4136962890625,0.440185546875,0.5755615234375,0.14453125,-0.359375,-0.0703125,-0.03125,0.005859375,-0.005859375
2026-09-07T15:04:09.372529,0.55072021484375,0.41357421875,0.4404296875,0.575927734375,0.11328125,0.0546875,-0.1953125,-0.025390625,0.001953125,0.001953125
2026-09-07T15:04:09.480572,0.54901123046875,0.4134521484375,0.44091796875,0.5772705078125,0.03125,-0.12890625,0.04296875,-0.017578125,0.005859375,-0.015625
2026-09-07T15:04:09.580078,0.54791259765625,0.41375732421875,0.4410400390625,0.57806396484375,0.12890625,-0.2109375,-0.0859375,-0.01953125,0.0078125,-0.025390625
2026-09-07T15:04:09.679874,0.54730224609375,0.413818359375,0.44122314453125,0.578369140625,-0.23828125,0.36328125,-0.06640625,-0.0234375,0.005859375,-0.01171875
2026-09-07T15:04:09.780200,0.5472412109375,0.4134521484375,0.4417724609375,0.5782470703125,-0.375,0.38671875,0.03515625,-0.009765625,0.00390625,0.01953125
2026-09-07T15:04:09.869913,0.5469970703125,0.41326904296875,0.44207763671875,0.578369140625,0.3203125,-0.19921875,-0.01171875,-0.0234375,0.00390625,0.013671875
2026-09-07T15:04:09.979653,0.5460205078125,0.41424560546875,0.44183349609375,0.578857421875,0.06640625,-0.08984375,-0.1640625,-0.009765625,0.009765625,-0.017578125
2026-09-07T15:04:10.080080,0.5458984375,0.4149169921875,0.44158935546875,0.57867431640625,-0.32421875,-0.265625,0.44140625,0.0,0.0078125,-0.0078125
2026-09-07T15:04:10.179526,0.54608154296875,0.4151611328125,0.44171142578125,0.5782470703125,-0.20703125,-0.02734375,0.203125,-0.009765625,0.0078125,0.00390625
2026-09-07T15:04:10.279565,0.54656982421875,0.4151611328125,0.44195556640625,0.5775146484375,0.11328125,0.578125,0.12109375,0.01953125,0.00390625,0.009765625
2026-09-07T15:04:10.378119,0.5472412109375,0.41510009765625,0.4422607421875,0.57672119140625,0.19921875,0.03125,0.01171875,0.01953125,0.00390625,0.013671875
2026-09-07T15:04:10.479848,0.54736328125,0.41510009765625,0.442626953125,0.5762939453125,0.11328125,0.4140625,-0.30078125,0.00390625,0.0078125,0.0078125
2026-09-07T15:04:10.579617,0.547607421875,0.41510009765625,0.44305419921875,0.5758056640625,-0.31640625,0.60546875,-0.27734375,0.00390625,0.00390625,0.005859375
2026-09-07T15:04:10.680332,0.5482177734375,0.41461181640625,0.44366455078125,0.5750732421875,-0.21875,0.14453125,0.21875,0.01953125,0.00390625,0.00390625
2026-09-07T15:04:10.780440,0.54876708984375,0.414306640625,0.4442138671875,0.5743408203125,0.44921875,-0.109375,-0.1171875,0.01171875,-0.001953125,0.009765625
2026-09-07T15:04:10.871794,0.54913330078125,0.414306640625,0.44439697265625,0.5660400390625,-0.00390625,0.15234375,-0.125,0.01171875,0.005859375,-0.259765625
2026-09-07T15:04:10.979760,0.54974365234375,0.41424560546875,0.4447021484375,0.57305908203125,0.00390625,-0.23828125,-0.04296875,0.025390625,0.00390625,-0.00390625
2026-09-07T15:04:11.080789,0.55047607421875,0.414306640625,0.4451904296875,0.57196044921875,-0.1171875,0.16015625,-0.078125,0.0234375,0.0078125,0.005859375
2026-09-07T15:04:11.180327,0.55096435546875,0.41461181640625,0.44549560546875,0.571044921875,0.2109375,-0.96875,-0.15625,0.01171875,0.0078125,0.013671875
2026-09-07T15:04:11.280431,0.55072021484375,0.41534423828125,0.44549560546875,0.5706787109375,0.0546875,0.0078125,-0.03125,-0.01953125,0.013671875,-0.005859375
2026-09-07T15:04:11.380112,0.55169677734375,0.41552734375,0.44610595703125,0.5692138671875,-0.203125,0.24609375,0.1640625,-0.017578125,0.017578125,0.00390625
2026-09-07T15:04:11.481126,0.55267333984375,0.41546630859375,0.44671630859375,0.56787109375,-0.37109375,0.23828125,0.34765625,-0.0390625,0.0078125,0.03125
2026-09-07T15:04:11.581818,0.55242919921875,0.41558837890625,0.4471435546875,0.56756591796875,0.32421875,-0.5,0.23828125,-0.015625,0.009765625,0.017578125
2026-09-07T15:04:11.681701,0.55133056640625,0.4166259765625,0.44720458984375,0.56787109375,0.0703125,-0.31640625,-0.359375,-0.015625,0.015625,-0.033203125
2026-09-07T15:04:11.778010,0.55126953125,0.41693115234375,0.4473876953125,0.56756591796875,-0.11328125,-0.6796875,-0.19140625,-0.01171875,0.0234375,-0.017578125
2026-09-07T15:04:11.875366,0.5509033203125,0.4178466796875,0.44769287109375,0.5670166015625,0.33984375,-0.78515625,-0.265625,-0.001953125,0.0234375,-0.02734375
2026-09-07T15:04:12.107341,0.55126953125,0.42095947265625,0.44732666015625,0.56463623046875,-0.33203125,0.91796875,-0.109375,-0.00390625,0.021484375,0.0234375
2026-09-07T15:04:12.197765,0.55230712890625,0.42230224609375,0.4478759765625,0.5621337890625,0.01171875,0.75390625,-0.2421875,-0.001953125,0.021484375,0.02734375
2026-09-07T15:04:12.298903,0.55230712890625,0.42266845703125,0.44818115234375,0.5616455078125,0.125,0.56640625,-0.09375,0.0,0.0234375,0.01171875
2026-09-07T15:04:12.396480,0.5528564453125,0.423828125,0.4486083984375,0.55987548828125,0.29296875,-0.01953125,-0.46875,-0.013671875,0.03515625,0.02734375
2026-09-07T15:04:12.498879,0.5540771484375,0.42535400390625,0.4493408203125,0.55694580078125,0.21484375,-0.359375,-0.28125,-0.0234375,0.041015625,0.01171875
2026-09-07T15:04:12.606621,0.55535888671875,0.42706298828125,0.4498291015625,0.553955078125,-0.359375,-0.05078125,0.24609375,0.001953125,0.03125,0.03515625
2026-09-07T15:04:12.697975,0.55810546875,0.42919921875,0.45050048828125,0.54901123046875,-0.0390625,0.1484375,-0.08984375,0.013671875,0.037109375,0.005859375
2026-09-07T15:04:12.798565,0.55859375,0.42974853515625,0.4508056640625,0.54779052734375,0.0859375,-0.2890625,0.30078125,-0.0078125,0.03515625,0.00390625
2026-09-07T15:04:12.905200,0.5584716796875,0.430908203125,0.45147705078125,0.54638671875,-0.12890625,0.09375,0.1015625,-0.025390625,0.02734375,0.0078125
2026-09-07T15:04:12.997699,0.557373046875,0.43182373046875,0.45294189453125,0.54559326171875,0.109375,-0.578125,-0.06640625,-0.044921875,0.025390625,-0.00390625
2026-09-07T15:04:13.106317,0.5567626953125,0.43194580078125,0.45343017578125,0.54571533203125,0.046875,-0.72265625,0.4140625,-0.01171875,0.01171875,-0.021484375
2026-09-07T15:04:13.197578,0.55499267578125,0.43255615234375,0.45391845703125,0.5467529296875,-0.06640625,-0.4296875,0.44921875,-0.009765625,0.013671875,-0.009765625
2026-09-07T15:04:13.305145,0.5545654296875,0.43267822265625,0.4539794921875,0.54693603515625,0.00390625,-0.1171875,0.078125,0.0234375,0.009765625,-0.013671875
2026-09-07T15:04:13.393235,0.55010986328125,0.431884765625,0.45599365234375,0.55035400390625,-0.109375,-0.1875,0.26953125,-0.001953125,0.01171875,0.0078125
2026-09-07T15:04:13.506200,0.5489501953125,0.431640625,0.45660400390625,0.55120849609375,-0.00390625,0.31640625,-0.0390625,0.009765625,0.013671875,0.0078125
2026-09-07T15:04:13.605763,0.54583740234375,0.430908203125,0.4583740234375,0.55340576171875,0.12109375,0.41796875,0.09765625,0.00390625,0.015625,0.001953125
2026-09-07T15:04:13.706744,0.5443115234375,0.43084716796875,0.4591064453125,0.55438232421875,0.05859375,-0.015625,-0.1171875,0.01953125,0.01171875,-0.00390625
2026-09-07T15:04:13.805633,0.54412841796875,0.43109130859375,0.4593505859375,0.55413818359375,-0.2265625,0.19140625,0.04296875,0.03125,0.0078125,0.009765625
2026-09-07T15:04:13.903501,0.54388427734375,0.43109130859375,0.45989990234375,0.553955078125,-0.078125,0.3828125,-0.00390625,0.025390625,0.009765625,0.029296875
2026-09-07T15:04:14.013953,0.54351806640625,0.43096923828125,0.460693359375,0.5537109375,-0.03515625,0.44140625,-0.125,0.0078125,0.0078125,0.0234375
2026-09-07T15:04:14.105301,0.54345703125,0.43060302734375,0.46160888671875,0.55328369140625,-0.1015625,0.59765625,-0.0703125,0.0,0.015625,0.02734375
2026-09-07T15:04:14.214742,0.543212890625,0.4306640625,0.4622802734375,0.55291748046875,0.265625,-0.16015625,-0.16796875,0.0,0.017578125,0.001953125
2026-09-07T15:04:14.304799,0.54290771484375,0.4315185546875,0.46234130859375,0.55255126953125,-0.53515625,-0.234375,-0.13671875,0.013671875,0.015625,0.005859375
2026-09-07T15:04:14.393620,0.54290771484375,0.432373046875,0.4622802734375,0.5518798828125,0.23828125,-1.09375,-0.3203125,0.021484375,0.013671875,-0.009765625
2026-09-07T15:04:14.515545,0.542724609375,0.43359375,0.46234130859375,0.551025390625,0.35546875,-1.45703125,0.74609375,0.001953125,0.01953125,-0.009765625
2026-09-07T15:04:14.612895,0.54248046875,0.43426513671875,0.46221923828125,0.5509033203125,-0.1640625,-0.5078125,0.484375,0.0,0.013671875,-0.005859375
2026-09-07T15:04:14.712586,0.5421142578125,0.435302734375,0.462158203125,0.55047607421875,-0.2734375,0.07421875,0.1484375,-0.013671875,0.017578125,-0.001953125
2026-09-07T15:04:14.812810,0.5421142578125,0.43621826171875,0.46209716796875,0.5498046875,-0.01171875,0.203125,-0.2421875,-0.001953125,0.017578125,0.001953125
2026-09-07T15:04:14.903057,0.5418701171875,0.4368896484375,0.4622802734375,0.54931640625,0.03515625,0.36328125,-0.11328125,-0.01171875,0.017578125,-0.001953125
2026-09-07T15:04:15.014236,0.541015625,0.437744140625,0.462890625,0.54901123046875,-0.04296875,0.21875,-0.39453125,-0.0234375,0.015625,0.0
