timestamp,quat_i,quat_j,quat_k,quat_real,accel_x,accel_y,accel_z,gyro_x,gyro_y,gyro_z,source_session
2026-09-07 13:00:00.884907,0.5921630859375,0.3707275390625,0.4686279296875,0.5406494140625,0.0,0.0,0.0,0.0,0.0,0.0,20260907_125957
2026-09-07 13:00:01.043727,0.59100341796875,0.36993408203125,0.47119140625,0.54022216796875,0.30859375,-0.1875,0.234375,-0.033203125,0.02734375,0.02734375,20260907_125957
2026-09-07 13:00:01.119341,-1.40850830078125,0.3677978515625,0.4744873046875,0.53826904296875,0.2421875,-0.32421875,0.203125,-0.01953125,0.029296875,0.013671875,20260907_125957
2026-09-07 13:00:01.214729,0.5916748046875,0.3656005859375,0.477783203125,0.53662109375,0.125,0.0078125,0.26171875,-0.017578125,0.02734375,0.01953125,20260907_125957
2026-09-07 13:00:01.316099,0.591552734375,0.36444091796875,0.4794921875,0.5360107421875,0.22265625,-0.3203125,-0.125,-0.01953125,0.03125,0.017578125,20260907_125957
2026-09-07 13:00:01.419293,0.590087890625,0.36016845703125,0.48577880859375,0.53485107421875,0.0859375,0.28515625,-0.5390625,-0.07421875,0.0390625,0.03125,20260907_125957
2026-09-07 13:00:01.500422,0.58929443359375,0.359130859375,0.48773193359375,0.53460693359375,-0.328125,0.0078125,0.52734375,-0.01171875,0.04296875,0.037109375,20260907_125957
2026-09-07 13:00:01.611884,0.58856201171875,0.35784912109375,0.49176025390625,0.53265380859375,-0.4140625,-0.0078125,0.625,-0.009765625,0.025390625,0.03515625,20260907_125957
2026-09-07 13:00:01.711620,0.58697509765625,0.3570556640625,0.49395751953125,0.53289794921875,-0.16796875,-0.26953125,0.24609375,0.01171875,0.01953125,0.048828125,20260907_125957
2026-09-07 13:00:01.810238,0.5853271484375,0.35711669921875,0.49603271484375,0.53271484375,0.125,-0.45703125,-0.12109375,0.02734375,0.037109375,0.01953125,20260907_125957
2026-09-07 13:00:01.913783,0.58404541015625,0.35772705078125,0.49774169921875,0.53216552734375,0.0625,0.09375,-0.3203125,0.0,0.03515625,0.001953125,20260907_125957
2026-09-07 13:00:02.010964,0.58282470703125,0.35784912109375,0.49896240234375,0.5322265625,-0.19921875,0.29296875,-0.44921875,-0.029296875,0.021484375,0.0,20260907_125957
2026-09-07 13:00:02.136577,0.58258056640625,0.3583984375,0.49951171875,0.5316162109375,-0.19140625,0.0859375,-0.0546875,-0.033203125,0.037109375,0.005859375,20260907_125957
2026-09-07 13:00:02.216926,0.5816650390625,0.36041259765625,0.499755859375,0.53106689453125,-0.17578125,-0.12109375,0.10546875,-0.04296875,0.048828125,-0.005859375,20260907_125957
2026-09-07 13:00:02.319022,0.5804443359375,0.3626708984375,0.49957275390625,0.531005859375,-0.01171875,-0.7109375,0.5859375,0.017578125,0.033203125,-0.03515625,20260907_125957
2026-09-07 13:00:02.429061,0.579345703125,0.36492919921875,0.49920654296875,0.53094482421875,-0.125,-0.0078125,-0.203125,0.013671875,0.03125,-0.03125,20260907_125957
2026-09-07 13:00:02.513577,0.5784912109375,0.3670654296875,0.49884033203125,0.53082275390625,0.2734375,0.13671875,0.0546875,0.029296875,0.02734375,-0.029296875,20260907_125957
2026-09-07 13:00:02.629350,0.57501220703125,0.3690185546875,0.49957275390625,0.5325927734375,0.45703125,1.0546875,-1.75,-0.107421875,0.0625,-0.029296875,20260907_125957
2026-09-07 13:00:02.718428,0.5718994140625,0.369873046875,0.5018310546875,0.53314208984375,-0.515625,1.3828125,0.23046875,-0.0390625,0.0546875,0.046875,20260907_125957
2026-09-07 13:00:02.813683,0.571533203125,0.3699951171875,0.50421142578125,0.53125,-0.31640625,0.546875,0.125,-0.017578125,0.048828125,0.046875,20260907_125957
2026-09-07 13:00:02.913823,0.57135009765625,0.36907958984375,0.50689697265625,0.52947998046875,-0.01953125,-0.14453125,0.01953125,-0.009765625,0.033203125,0.056640625,20260907_125957
2026-09-07 13:00:03.014483,0.5712890625,0.3697509765625,0.50872802734375,0.52734375,0.40234375,-0.47265625,-0.16015625,0.009765625,0.041015625,0.041015625,20260907_125957
2026-09-07 13:00:03.114463,0.5711669921875,0.370849609375,0.51068115234375,0.52484130859375,0.02734375,-0.71875,-0.01953125,0.01953125,0.0546875,0.029296875,20260907_125957
2026-09-07 13:00:03.215422,0.5712890625,0.371337890625,0.51318359375,0.5218505859375,0.25390625,-0.3828125,-0.3125,0.0,0.056640625,0.056640625,20260907_125957
2026-09-07 13:00:03.311450,0.57440185546875,0.37017822265625,0.5167236328125,0.51580810546875,-0.17578125,0.41015625,-0.15625,0.048828125,0.0546875,0.0625,20260907_125957
2026-09-07 13:00:03.412625,0.57696533203125,0.37060546875,0.51788330078125,0.51141357421875,0.08203125,0.15625,0.44921875,0.0703125,0.03515625,0.00390625,20260907_125957
2026-09-07 13:00:03.513486,0.57464599609375,0.37457275390625,0.51763916015625,0.51141357421875,0.23828125,1.2421875,-0.5078125,-0.0078125,0.064453125,-0.09375,20260907_125957
2026-09-07 13:00:03.612948,0.5712890625,0.380615234375,0.5167236328125,0.5115966796875,-0.87109375,0.20703125,-0.0703125,0.056640625,0.08203125,-0.115234375,20260907_125957
2026-09-07 13:00:03.711627,0.5687255859375,0.384521484375,0.51702880859375,0.51129150390625,-1.2734375,1.9765625,-0.0625,0.013671875,0.076171875,-0.0625,20260907_125957
2026-09-07 13:00:03.811699,0.5672607421875,0.3857421875,0.5186767578125,0.51025390625,-1.3828125,0.98046875,-0.421875,-0.041015625,0.05859375,0.021484375,20260907_125957
2026-09-07 13:00:03.913585,0.56683349609375,0.38720703125,0.520263671875,0.508056640625,-0.47265625,0.11328125,-0.0703125,0.009765625,0.052734375,0.015625,20260907_125957
2026-09-07 13:00:04.013362,0.56695556640625,0.389404296875,0.52191162109375,0.5045166015625,-0.515625,-1.01171875,0.375,0.048828125,0.0703125,0.013671875,20260907_125957
2026-09-07 13:00:04.112068,0.5687255859375,0.39141845703125,0.5233154296875,0.49951171875,-0.33203125,-1.36328125,-0.15234375,0.072265625,0.0625,0.01171875,20260907_125957
2026-09-07 13:00:04.212220,0.569091796875,0.3931884765625,0.52398681640625,0.4969482421875,-0.46484375,-0.0703125,-1.5703125,0.046875,0.0390625,-0.0078125,20260907_125957
2026-09-07 13:00:04.311606,0.5673828125,0.39556884765625,0.5240478515625,0.4969482421875,-0.40234375,0.60546875,-1.67578125,-0.052734375,0.048828125,-0.05859375,20260907_125957
2026-09-07 13:00:04.412473,0.56427001953125,0.40032958984375,0.5230712890625,0.49774169921875,-1.2265625,0.359375,0.32421875,0.00390625,0.07421875,-0.1171875,20260907_125957
2026-09-07 13:00:04.513045,0.55841064453125,0.40008544921875,0.52667236328125,0.50067138671875,-2.2890625,0.78125,-0.328125,-0.10546875,0.072265625,-0.134765625,20260907_125957
2026-09-07 13:00:04.625535,0.5589599609375,0.39801025390625,0.53070068359375,0.49749755859375,-3.69921875,3.015625,0.703125,-0.08984375,0.052734375,0.08984375,20260907_125957
2026-09-07 13:00:04.725778,0.56427001953125,0.39398193359375,0.53509521484375,0.489990234375,-0.70703125,-0.41015625,0.62890625,0.05859375,0.013671875,0.208984375,20260907_125957
2026-09-07 13:00:04.810343,0.56683349609375,0.39166259765625,0.5374755859375,0.4862060546875,-0.39453125,-0.37109375,-0.12109375,0.0703125,0.025390625,0.19140625,20260907_125957
2026-09-07 13:00:04.923309,0.57098388671875,0.3861083984375,0.5438232421875,0.478759765625,-0.11328125,-0.83203125,-2.21484375,-0.01953125,0.03125,0.1640625,20260907_125957
2026-09-07 13:00:05.009508,0.57049560546875,0.384765625,0.5450439453125,0.47900390625,-0.41796875,-1.6328125,0.48828125,0.01953125,0.0234375,-0.087890625,20260907_125957
2026-09-07 13:00:05.110063,0.567626953125,0.3873291015625,0.54461669921875,0.4808349609375,-0.5234375,-0.1640625,0.94921875,-0.033203125,0.064453125,-0.11328125,20260907_125957
2026-09-07 13:00:05.210678,0.562744140625,0.3948974609375,0.54241943359375,0.48284912109375,-1.50390625,0.44140625,0.08203125,-0.009765625,0.0859375,-0.1171875,20260907_125957
2026-09-07 13:00:05.310625,0.5604248046875,0.40118408203125,0.54022216796875,0.4827880859375,-1.73046875,0.875,0.17578125,0.08984375,0.04296875,-0.083984375,20260907_125957
2026-09-07 13:00:05.410699,0.55999755859375,0.40325927734375,0.53912353515625,0.48284912109375,-0.953125,-0.2109375,0.109375,0.001953125,0.0078125,0.0,20260907_125957
2026-09-07 13:00:05.511109,0.55999755859375,0.40411376953125,0.5389404296875,0.48236083984375,-0.11328125,-0.11328125,-1.4921875,0.0234375,0.017578125,0.013671875,20260907_125957
2026-09-07 13:00:05.610304,0.55853271484375,0.404541015625,0.54034423828125,0.48211669921875,-0.47265625,-0.6171875,0.59765625,-0.017578125,0.04296875,0.01171875,20260907_125957
2026-09-07 13:00:05.709788,0.5584716796875,0.40716552734375,0.539794921875,0.4805908203125,-0.234375,-1.8515625,0.5390625,0.087890625,0.029296875,-0.021484375,20260907_125957
2026-09-07 13:00:05.809889,0.55810546875,0.4122314453125,0.53668212890625,0.4801025390625,-0.046875,-1.5078125,-0.39453125,0.046875,0.017578125,-0.0859375,20260907_125957
2026-09-07 13:00:05.909822,0.5560302734375,0.41748046875,0.53350830078125,0.4815673828125,-0.99609375,2.5625,-0.9765625,-0.005859375,0.03125,-0.076171875,20260907_125957
2026-09-07 13:00:06.028085,0.55328369140625,0.4193115234375,0.53326416015625,0.48333740234375,-0.671875,1.55078125,0.21875,-0.08984375,0.01953125,0.029296875,20260907_125957
2026-09-07 13:00:06.120424,0.5521240234375,0.41998291015625,0.53369140625,0.48370361328125,-0.71875,0.73828125,0.125,-0.021484375,0.025390625,0.0703125,20260907_125957
2026-09-07 13:00:06.221126,0.5521240234375,0.4180908203125,0.536376953125,0.48236083984375,0.453125,-0.671875,0.26171875,-0.021484375,0.015625,0.1640625,20260907_125957
2026-09-07 13:00:06.318335,0.55364990234375,0.41473388671875,0.5400390625,0.47943115234375,0.56640625,-0.55859375,-0.11328125,-0.005859375,0.00390625,0.0703125,20260907_125957
2026-09-07 13:00:06.439316,0.55438232421875,0.415283203125,0.54010009765625,0.47802734375,0.0390625,0.9296875,-0.25,0.00390625,0.029296875,-0.060546875,20260907_125957
2026-09-07 13:00:06.509690,0.55133056640625,0.4190673828125,0.5386962890625,0.479736328125,-0.08203125,0.4609375,-0.296875,0.009765625,0.029296875,-0.0625,20260907_125957
2026-09-07 13:00:06.622436,0.55059814453125,0.41998291015625,0.53857421875,0.47998046875,-1.20703125,1.51953125,0.30078125,-0.01171875,0.0234375,-0.0078125,20260907_125957
2026-09-07 13:00:06.716325,0.548583984375,0.42279052734375,0.5369873046875,0.4815673828125,0.1484375,-0.7109375,0.26953125,0.013671875,0.01953125,-0.01953125,20260907_125957
2026-09-07 13:00:06.816276,0.54718017578125,0.42376708984375,0.53680419921875,0.4825439453125,0.1015625,-0.22265625,0.0078125,0.01953125,0.0078125,0.009765625,20260907_125957
2026-09-07 13:00:06.916555,0.54644775390625,0.4249267578125,0.53631591796875,0.48291015625,-0.5625,0.5,-0.03125,-0.060546875,0.009765625,0.03515625,20260907_125957
2026-09-07 13:00:07.004979,0.54583740234375,0.42596435546875,0.5357666015625,0.4832763671875,-0.51171875,-0.57421875,-0.06640625,0.00390625,0.00390625,0.015625,20260907_125957
2026-09-07 13:00:07.115775,0.54547119140625,0.4267578125,0.535400390625,0.48345947265625,-0.1796875,0.0703125,0.30078125,-0.005859375,0.009765625,-0.025390625,20260907_125957
2026-09-07 13:00:07.222316,0.54449462890625,0.4276123046875,0.5347900390625,0.484375,-0.6171875,0.4921875,-0.50390625,0.009765625,0.001953125,-0.015625,20260907_125957
2026-09-07 13:00:07.322868,0.5430908203125,0.4293212890625,0.53369140625,0.48565673828125,-0.5390625,0.4453125,-0.0625,-0.025390625,0.005859375,-0.009765625,20260907_125957
2026-09-07 13:00:07.421782,0.54168701171875,0.4310302734375,0.53253173828125,0.487060546875,-0.171875,-0.59765625,0.4140625,-0.048828125,0.005859375,0.009765625,20260907_125957
2026-09-07 13:00:07.523175,0.54052734375,0.43170166015625,0.53228759765625,0.48797607421875,-0.38671875,0.12890625,0.14453125,-0.01953125,0.0078125,0.001953125,20260907_125957
2026-09-07 13:00:07.620354,0.54010009765625,0.4324951171875,0.53179931640625,0.48828125,-0.33203125,-0.4453125,0.3671875,-0.0390625,0.001953125,0.0078125,20260907_125957
2026-09-07 13:00:07.720684,0.53924560546875,0.43304443359375,0.531494140625,0.48907470703125,-0.375,0.4375,-0.29296875,0.013671875,0.005859375,-0.033203125,20260907_125957
2026-09-07 13:00:07.820101,0.53826904296875,0.43365478515625,0.53106689453125,0.49005126953125,-0.3984375,0.359375,-0.0078125,-0.017578125,0.0,0.005859375,20260907_125957
2026-09-07 13:00:07.921884,0.5377197265625,0.433837890625,0.531005859375,0.4906005859375,-0.015625,-0.4453125,-0.19921875,-0.033203125,0.001953125,0.03125,20260907_125957
2026-09-07 13:00:08.020706,0.5374755859375,0.43389892578125,0.53106689453125,0.49078369140625,-0.4296875,-0.10546875,0.0390625,-0.005859375,-0.00390625,0.025390625,20260907_125957
2026-09-07 13:00:08.119964,0.5374755859375,0.43438720703125,0.53057861328125,0.4908447265625,-0.453125,-0.03125,0.14453125,-0.03125,-0.001953125,0.013671875,20260907_125957
2026-09-07 13:00:08.222223,0.537109375,0.4346923828125,0.53021240234375,0.4913330078125,-0.12890625,0.16015625,0.03125,0.013671875,0.0,0.00390625,20260907_125957
2026-09-07 13:00:08.322667,0.53656005859375,0.43572998046875,0.5294189453125,0.49188232421875,-0.27734375,-0.06640625,0.234375,-0.009765625,0.0,0.009765625,20260907_125957
2026-09-07 13:00:08.423164,0.53338623046875,0.43865966796875,0.5272216796875,0.4951171875,-0.140625,-0.2734375,0.06640625,0.009765625,-0.001953125,-0.001953125,20260907_125957
2026-09-07 13:00:08.544094,0.531494140625,0.4407958984375,0.52545166015625,0.49713134765625,-0.26171875,0.21875,-0.0078125,0.015625,0.00390625,-0.029296875,20260907_125957
2026-09-07 13:00:08.622442,0.5291748046875,0.44342041015625,0.52325439453125,0.49957275390625,-0.015625,-0.12890625,0.0,-0.001953125,-0.001953125,0.001953125,20260907_125957
2026-09-07 13:00:08.732050,0.52862548828125,0.444580078125,0.522216796875,0.500244140625,0.16796875,0.0625,-0.0546875,0.001953125,0.0,0.001953125,20260907_125957
2026-09-07 13:00:08.845429,0.52703857421875,0.4478759765625,0.51934814453125,0.50189208984375,-0.13671875,0.23828125,-0.26953125,0.0390625,0.0,-0.013671875,20260907_125957
2026-09-07 13:00:08.948305,0.52618408203125,0.45062255859375,0.51678466796875,0.5029296875,0.53125,-0.8046875,0.3984375,-0.017578125,0.0,0.009765625,20260907_125957
2026-09-07 13:00:09.018691,0.52630615234375,0.45068359375,0.51678466796875,0.50286865234375,0.1171875,-0.046875,0.21484375,0.01953125,0.001953125,-0.009765625,20260907_125957
2026-09-07 13:00:09.142731,0.52618408203125,0.4505615234375,0.516845703125,0.5029296875,-0.1953125,-0.046875,0.13671875,0.0234375,-0.00390625,0.0,20260907_125957
2026-09-07 13:00:09.221648,0.52630615234375,0.45111083984375,0.516357421875,0.50286865234375,0.04296875,-0.359375,-0.2734375,0.005859375,0.001953125,-0.0078125,20260907_125957
2026-09-07 13:00:09.331713,0.52606201171875,0.451416015625,0.51617431640625,0.50299072265625,-0.1796875,-0.4765625,-0.23828125,-0.01171875,0.0,-0.015625,20260907_125957
2026-09-07 13:00:09.421826,0.5224609375,0.457275390625,0.51080322265625,0.5069580078125,0.17578125,0.4375,-0.51171875,-0.029296875,0.0,-0.00390625,20260907_125957
2026-09-07 13:00:09.530174,0.52166748046875,0.458984375,0.50921630859375,0.50787353515625,-0.14453125,0.07421875,-0.1953125,-0.021484375,0.001953125,0.01171875,20260907_125957
2026-09-07 13:00:09.629938,0.518798828125,0.46331787109375,0.50537109375,0.51068115234375,-0.1953125,-0.4765625,0.33984375,0.02734375,0.0,-0.01171875,20260907_125957
2026-09-07 13:00:09.745054,0.51611328125,0.46697998046875,0.50177001953125,0.5135498046875,0.03515625,-0.1640625,0.15625,0.00390625,0.001953125,-0.0234375,20260907_125957
2026-09-07 13:00:09.841682,0.51531982421875,0.46795654296875,0.5008544921875,0.514404296875,0.2578125,-0.23828125,0.09375,0.013671875,0.0,-0.0078125,20260907_125957
2026-09-07 13:00:09.919912,0.514404296875,0.4691162109375,0.499755859375,0.51531982421875,0.203125,-0.03125,-0.04296875,0.01171875,0.00390625,-0.013671875,20260907_125957
2026-09-07 13:00:10.038672,0.51409912109375,0.46923828125,0.49969482421875,0.515625,0.109375,0.3671875,0.109375,-0.044921875,0.005859375,0.01171875,20260907_125957
2026-09-07 13:00:10.127197,0.5137939453125,0.46929931640625,0.499755859375,0.51580810546875,0.21484375,0.015625,0.1015625,-0.01953125,-0.00390625,0.0546875,20260907_125957
2026-09-07 13:00:10.240265,0.51446533203125,0.4697265625,0.49951171875,0.51495361328125,0.29296875,-0.67578125,-0.0078125,0.046875,0.01171875,-0.005859375,20260907_125957
2026-09-07 13:00:10.319333,0.514892578125,0.47039794921875,0.4993896484375,0.5140380859375,0.23828125,-0.28515625,0.015625,-0.009765625,0.015625,0.029296875,20260907_125957
2026-09-07 13:00:10.444420,0.51397705078125,0.47100830078125,0.49945068359375,0.5142822265625,0.125,0.25390625,-0.3359375,0.0078125,0.01171875,-0.037109375,20260907_125957
2026-09-07 13:00:10.540819,0.5123291015625,0.4700927734375,0.500732421875,0.51556396484375,-0.2421875,0.796875,-0.328125,-0.087890625,0.013671875,0.001953125,20260907_125957
2026-09-07 13:00:10.637185,0.51214599609375,0.47015380859375,0.50079345703125,0.51556396484375,-0.01953125,0.48828125,0.03125,0.001953125,-0.001953125,0.01953125,20260907_125957
2026-09-07 13:00:10.742254,0.51287841796875,0.47076416015625,0.50042724609375,0.51470947265625,-0.15234375,-0.19140625,0.33984375,0.052734375,-0.001953125,0.0,20260907_125957
2026-09-07 13:00:10.840820,0.51416015625,0.47076416015625,0.5001220703125,0.51373291015625,0.0,0.3828125,-0.2578125,-0.00390625,-0.0078125,0.01171875,20260907_125957
2026-09-07 13:00:10.944170,0.51446533203125,0.47015380859375,0.50042724609375,0.513671875,0.3984375,0.23046875,0.15625,-0.041015625,0.0,0.025390625,20260907_125957
2026-09-07 13:00:11.118855,0.51470947265625,0.4693603515625,0.50164794921875,0.51300048828125,0.40625,-0.23046875,-0.0078125,-0.017578125,0.00390625,0.0234375,20260907_125957
2026-09-07 13:00:11.160764,0.51483154296875,0.46954345703125,0.50152587890625,0.5128173828125,0.40625,-0.23046875,-0.0078125,0.041015625,-0.001953125,-0.009765625,20260907_125957
2026-09-07 13:00:11.246431,0.51519775390625,0.469482421875,0.50146484375,0.51251220703125,0.359375,-0.0390625,-0.2109375,0.015625,0.0,-0.025390625,20260907_125957
2026-09-07 13:00:11.347645,0.514892578125,0.46942138671875,0.50152587890625,0.51287841796875,0.1015625,0.19140625,-0.11328125,-0.0234375,0.001953125,-0.01171875,20260907_125957
2026-09-07 13:00:11.455818,0.51416015625,0.4688720703125,0.50213623046875,0.513427734375,-0.12890625,0.11328125,-0.12890625,-0.02734375,-0.001953125,0.02734375,20260907_125957
2026-09-07 13:00:11.555349,0.51446533203125,0.4688720703125,0.502197265625,0.51312255859375,-0.25390625,0.15234375,0.21484375,0.0234375,-0.001953125,-0.001953125,20260907_125957
2026-09-07 13:00:11.662166,0.51422119140625,0.46807861328125,0.50299072265625,0.51324462890625,-0.0859375,-0.046875,0.1171875,-0.01171875,0.0,0.0078125,20260907_125957
2026-09-07 13:00:11.757709,0.51409912109375,0.4671630859375,0.50384521484375,0.51348876953125,0.26171875,0.4140625,-0.16015625,-0.013671875,0.005859375,-0.001953125,20260907_125957
2026-09-07 13:00:11.856213,0.5140380859375,0.46685791015625,0.5042724609375,0.5133056640625,0.17578125,-0.16015625,-0.4296875,0.005859375,-0.001953125,-0.00390625,20260907_125957
2026-09-07 13:00:11.947448,0.51361083984375,0.46685791015625,0.50433349609375,0.513671875,0.23046875,0.4140625,-0.55859375,0.009765625,-0.001953125,-0.01953125,20260907_125957
2026-09-07 13:00:12.060632,0.51324462890625,0.46697998046875,0.50421142578125,0.51409912109375,0.16796875,-0.0859375,-0.20703125,-0.021484375,-0.001953125,0.015625,20260907_125957
2026-09-07 13:00:12.154962,0.5128173828125,0.46746826171875,0.50390625,0.514404296875,-0.2734375,-0.26953125,0.18359375,-0.072265625,0.0078125,0.017578125,20260907_125957
2026-09-07 13:00:12.253816,0.5126953125,0.46795654296875,0.50360107421875,0.51434326171875,-0.16015625,0.26953125,0.875,-0.03515625,0.0078125,0.068359375,20260907_125957
2026-09-07 13:00:12.359165,0.5126953125,0.46746826171875,0.50390625,0.51446533203125,0.26171875,-0.421875,-0.296875,-0.0390625,0.005859375,0.01953125,20260907_125957
2026-09-07 13:00:12.456742,0.51177978515625,0.466796875,0.504638671875,0.5152587890625,0.03125,0.0,-0.3515625,-0.0546875,-0.017578125,0.087890625,20260907_125957
2026-09-07 13:00:12.559272,0.511962890625,0.4666748046875,0.504638671875,0.51519775390625,-0.40625,0.0078125,-0.4609375,-0.064453125,0.00390625,0.015625,20260907_125957
2026-09-07 13:00:12.659389,0.512451171875,0.4676513671875,0.503173828125,0.5152587890625,0.0703125,-1.1796875,0.98046875,0.033203125,0.0078125,-0.009765625,20260907_125957
2026-09-07 13:00:12.758871,0.5126953125,0.4671630859375,0.503173828125,0.5155029296875,-0.328125,0.6953125,-0.58984375,0.01953125,-0.015625,-0.009765625,20260907_125957
2026-09-07 13:00:12.859028,0.51220703125,0.46685791015625,0.50341796875,0.5159912109375,-1.0546875,1.1640625,-1.1484375,0.037109375,-0.00390625,-0.076171875,20260907_125957
2026-09-07 13:00:12.959274,0.5120849609375,0.46673583984375,0.50341796875,0.51629638671875,-0.47265625,1.0859375,-0.23828125,-0.095703125,-0.00390625,0.04296875,20260907_125957
2026-09-07 13:00:13.058420,0.511962890625,0.4664306640625,0.50335693359375,0.5167236328125,-0.05078125,-0.8359375,0.734375,0.00390625,0.009765625,-0.0078125,20260907_125957
2026-09-07 13:00:13.158738,0.51177978515625,0.466064453125,0.50335693359375,0.51715087890625,0.26953125,0.390625,0.16015625,0.01953125,-0.001953125,-0.009765625,20260907_125957
2026-09-07 13:00:13.261086,0.51104736328125,0.46484375,0.50433349609375,0.51812744140625,0.2109375,1.234375,-0.71484375,0.0234375,-0.001953125,-0.033203125,20260907_125957
2026-09-07 13:00:13.357502,0.51007080078125,0.464599609375,0.50445556640625,0.5191650390625,0.1796875,-0.484375,0.16796875,-0.02734375,0.001953125,-0.029296875,20260907_125957
2026-09-07 13:00:13.457111,0.5091552734375,0.46417236328125,0.5048828125,0.51995849609375,0.33984375,-0.55859375,-0.109375,0.0234375,0.00390625,-0.0390625,20260907_125957
2026-09-07 13:00:13.556798,0.50885009765625,0.46380615234375,0.5052490234375,0.520263671875,0.45703125,0.23046875,0.21484375,0.03125,0.001953125,0.001953125,20260907_125957
2026-09-07 13:00:13.660942,0.50946044921875,0.46435546875,0.50445556640625,0.51995849609375,-0.76171875,-0.19140625,0.3671875,0.00390625,0.001953125,-0.013671875,20260907_125957
2026-09-07 13:00:13.760107,0.50933837890625,0.46441650390625,0.50445556640625,0.52001953125,-0.32421875,0.3125,-0.37109375,-0.037109375,0.001953125,-0.0078125,20260907_125957
2026-09-07 13:00:13.858880,0.5081787109375,0.4642333984375,0.5047607421875,0.52099609375,0.53125,0.34375,0.296875,-0.01171875,0.00390625,0.015625,20260907_125957
2026-09-07 13:00:13.960388,0.50634765625,0.46405029296875,0.50543212890625,0.52227783203125,0.08203125,0.50390625,-0.1953125,-0.01171875,-0.005859375,0.025390625,20260907_125957
2026-09-07 13:00:14.057015,0.5054931640625,0.46453857421875,0.50537109375,0.52276611328125,-0.40234375,0.58203125,-1.23828125,-0.068359375,0.001953125,0.046875,20260907_125957
2026-09-07 13:00:14.153989,0.504638671875,0.4642333984375,0.505859375,0.52337646484375,-0.0859375,-0.4140625,0.203125,-0.09375,0.001953125,0.064453125,20260907_125957
2026-09-07 13:00:14.257876,0.50439453125,0.46368408203125,0.50634765625,0.523681640625,-0.1640625,-0.61328125,-0.03515625,0.0,0.005859375,-0.017578125,20260907_125957
2026-09-07 13:00:14.357517,0.50384521484375,0.4638671875,0.50640869140625,0.52392578125,-0.42578125,0.07421875,-0.33984375,-0.00390625,0.005859375,-0.0078125,20260907_125957
2026-09-07 13:00:14.457200,0.50347900390625,0.46429443359375,0.50616455078125,0.52410888671875,-0.2265625,0.07421875,0.2578125,0.03125,0.001953125,-0.005859375,20260907_125957
2026-09-07 13:00:14.558328,0.50408935546875,0.4656982421875,0.50494384765625,0.52349853515625,-0.046875,-0.60546875,-0.0703125,0.0234375,0.0,-0.01171875,20260907_125957
2026-09-07 13:00:14.666879,0.50360107421875,0.46600341796875,0.50469970703125,0.52386474609375,-0.453125,-0.4140625,-0.33984375,0.0625,-0.001953125,-0.021484375,20260907_125957
2026-09-07 13:00:14.757505,0.503662109375,0.46832275390625,0.5028076171875,0.52362060546875,-0.4296875,0.6953125,-0.30859375,0.064453125,0.001953125,-0.046875,20260907_125957
2026-09-07 13:00:14.866886,0.5035400390625,0.46875,0.50250244140625,0.52362060546875,-0.56640625,-0.4140625,0.3515625,0.009765625,-0.00390625,0.01953125,20260907_125957
2026-09-07 13:00:14.957601,0.503662109375,0.46942138671875,0.501953125,0.52349853515625,-0.453125,-0.60546875,0.49609375,0.04296875,0.001953125,-0.021484375,20260907_125957
2026-09-07 13:00:15.068154,0.504150390625,0.469482421875,0.50177001953125,0.52313232421875,0.04296875,-0.7109375,0.24609375,-0.0546875,0.001953125,0.05078125,20260907_125957
2026-09-07 13:00:15.165358,0.504150390625,0.47052001953125,0.5010986328125,0.52288818359375,-0.62890625,0.97265625,-0.17578125,-0.021484375,0.001953125,0.029296875,20260907_125957
2026-09-07 13:00:15.257102,0.50396728515625,0.470947265625,0.50079345703125,0.52288818359375,-0.0859375,-0.17578125,0.4453125,-0.080078125,0.01171875,0.060546875,20260907_125957
2026-09-07 13:00:15.365333,0.50421142578125,0.47137451171875,0.5006103515625,0.5224609375,-0.19140625,-0.51953125,-0.52734375,0.03515625,0.0078125,-0.001953125,20260907_125957
2026-09-07 13:00:15.456431,0.50482177734375,0.472412109375,0.5001220703125,0.52142333984375,-0.4609375,0.359375,-0.16796875,-0.072265625,-0.005859375,0.08203125,20260907_125957
2026-09-07 13:00:15.565752,0.5047607421875,0.4722900390625,0.50018310546875,0.521484375,-0.34375,0.08984375,0.13671875,0.025390625,0.001953125,-0.013671875,20260907_125957
2026-09-07 13:00:15.656370,0.5048828125,0.4727783203125,0.4998779296875,0.52130126953125,-0.3515625,0.015625,0.0625,0.009765625,0.001953125,-0.001953125,20260907_125957
2026-09-07 13:00:15.778374,0.504638671875,0.47283935546875,0.49993896484375,0.5213623046875,-0.18359375,0.0546875,-0.15234375,0.05078125,0.005859375,-0.04296875,20260907_125957
2026-09-07 13:00:15.865878,0.5045166015625,0.47442626953125,0.49884033203125,0.5211181640625,-0.4296875,0.3203125,-0.4453125,0.001953125,0.005859375,-0.01953125,20260907_125957
2026-09-07 13:00:16.096612,0.50323486328125,0.47509765625,0.4986572265625,0.52191162109375,-0.08203125,0.390625,-0.10546875,0.013671875,0.001953125,0.0,20260907_125957
2026-09-07 13:00:16.180945,0.5018310546875,0.47479248046875,0.499267578125,0.52294921875,-0.11328125,0.0078125,-0.0078125,-0.05078125,0.00390625,0.0078125,20260907_125957
2026-09-07 13:00:16.278919,0.50140380859375,0.47528076171875,0.4990234375,0.52313232421875,-0.14453125,0.62109375,-0.46875,0.03515625,0.00390625,-0.01953125,20260907_125957
2026-09-07 13:00:16.379985,0.50091552734375,0.47540283203125,0.49908447265625,0.5234375,-0.2421875,-0.0703125,0.328125,0.005859375,0.0078125,-0.009765625,20260907_125957
2026-09-07 13:00:16.481919,0.50146484375,0.47613525390625,0.49798583984375,0.52325439453125,0.078125,-0.765625,0.8125,0.025390625,-0.0078125,0.0078125,20260907_125957
2026-09-07 13:00:16.580910,0.501220703125,0.47528076171875,0.49859619140625,0.523681640625,-1.1796875,2.18359375,-2.0234375,0.021484375,-0.015625,-0.029296875,20260907_125957
2026-09-07 13:00:16.680609,0.5013427734375,0.47509765625,0.49853515625,0.52392578125,-0.89453125,-1.578125,1.37890625,-0.033203125,-0.00390625,0.005859375,20260907_125957
2026-09-07 13:00:16.782619,0.50091552734375,0.47576904296875,0.4976806640625,0.5244140625,0.5078125,-1.578125,0.58203125,0.001953125,-0.005859375,-0.01171875,20260907_125957
2026-09-07 13:00:16.881382,0.5003662109375,0.4776611328125,0.4957275390625,0.525146484375,0.453125,-0.5078125,-0.52734375,0.046875,-0.0078125,-0.126953125,20260907_125957
2026-09-07 13:00:16.992813,0.49908447265625,0.4794921875,0.49346923828125,0.52685546875,-1.0625,0.50390625,-0.765625,0.0234375,-0.009765625,-0.083984375,20260907_125957
2026-09-07 13:00:17.080108,0.49853515625,0.47894287109375,0.49383544921875,0.5274658203125,-0.1015625,0.88671875,-0.16015625,-0.044921875,-0.005859375,0.05078125,20260907_125957
2026-09-07 13:00:17.180719,0.49981689453125,0.47711181640625,0.49505615234375,0.5267333984375,-0.171875,0.6953125,0.3828125,-0.017578125,-0.0078125,0.060546875,20260907_125957
2026-09-07 13:00:17.291174,0.50128173828125,0.47625732421875,0.495361328125,0.52581787109375,-0.296875,0.34375,-0.59765625,-0.0390625,-0.017578125,0.0859375,20260907_125957
2026-09-07 13:00:17.379715,0.501220703125,0.4765625,0.49468994140625,0.52630615234375,0.203125,0.26171875,-0.7109375,0.05859375,-0.00390625,-0.060546875,20260907_125957
2026-09-07 13:00:17.481460,0.500732421875,0.4775390625,0.49346923828125,0.52703857421875,-0.2265625,-0.27734375,-0.16796875,0.0078125,-0.001953125,-0.021484375,20260907_125957
2026-09-07 13:00:17.592593,0.5001220703125,0.47845458984375,0.492431640625,0.5277099609375,-0.6328125,0.18359375,-0.046875,0.0390625,-0.001953125,-0.029296875,20260907_125957
2026-09-07 13:00:17.693453,0.499755859375,0.479248046875,0.49151611328125,0.5281982421875,-0.68359375,-0.23828125,-0.19140625,0.00390625,-0.00390625,-0.021484375,20260907_125957
2026-09-07 13:00:17.796476,0.49810791015625,0.48138427734375,0.489013671875,0.53009033203125,0.33203125,-0.1015625,0.171875,-0.017578125,-0.001953125,-0.0078125,20260907_125957
2026-09-07 13:00:17.891423,0.494140625,0.4866943359375,0.4835205078125,0.5340576171875,0.3828125,0.09765625,0.31640625,-0.01171875,-0.0078125,0.03515625,20260907_125957
2026-09-07 13:00:17.981974,0.4930419921875,0.4881591796875,0.48187255859375,0.53515625,0.11328125,0.72265625,-0.18359375,0.046875,-0.00390625,-0.017578125,20260907_125957
2026-09-07 13:00:18.096456,0.4918212890625,0.48919677734375,0.48077392578125,0.536376953125,0.48046875,-0.85546875,0.31640625,0.005859375,-0.00390625,0.0234375,20260907_125957
2026-09-07 13:00:18.227286,0.4918212890625,0.4892578125,0.48052978515625,0.5364990234375,-0.1875,0.3203125,-0.14453125,0.029296875,-0.001953125,-0.00390625,20260907_125957
2026-09-07 13:00:18.278344,0.49224853515625,0.489990234375,0.479736328125,0.5361328125,0.203125,0.01953125,0.21484375,-0.01171875,-0.00390625,0.025390625,20260907_125957
2026-09-07 13:00:18.379366,0.4921875,0.490234375,0.47943115234375,0.53619384765625,0.16796875,0.41796875,-0.2734375,-0.01953125,0.0,0.009765625,20260907_125957
2026-09-07 13:00:18.480007,0.49188232421875,0.4901123046875,0.4794921875,0.53662109375,-0.04296875,-0.609375,0.31640625,0.029296875,-0.001953125,-0.025390625,20260907_125957
2026-09-07 13:00:18.579995,0.49188232421875,0.489990234375,0.47967529296875,0.53656005859375,0.36328125,0.01171875,-0.14453125,0.015625,0.00390625,0.0,20260907_125957
2026-09-07 13:00:18.679596,0.4918212890625,0.48992919921875,0.4798583984375,0.53643798828125,0.85546875,-0.59375,0.4296875,-0.009765625,0.005859375,0.015625,20260907_125957
2026-09-07 13:00:18.779049,0.49188232421875,0.49041748046875,0.4793701171875,0.53643798828125,0.73828125,-0.69140625,0.67578125,0.0078125,0.0,-0.009765625,20260907_125957
2026-09-07 13:00:18.879075,0.4920654296875,0.4913330078125,0.47821044921875,0.53643798828125,0.41015625,0.390625,-0.03515625,0.0,-0.00390625,-0.001953125,20260907_125957
2026-09-07 13:00:18.978335,0.491943359375,0.4910888671875,0.4783935546875,0.53662109375,1.26953125,-1.14453125,0.33203125,-0.015625,-0.001953125,0.00390625,20260907_125957
2026-09-07 13:00:19.079312,0.49139404296875,0.49127197265625,0.47821044921875,0.537109375,0.1875,0.7109375,-0.09765625,0.0234375,0.001953125,-0.025390625,20260907_125957
2026-09-07 13:00:19.278708,0.49078369140625,0.4912109375,0.47784423828125,0.53802490234375,0.4453125,0.53515625,0.375,0.021484375,-0.00390625,-0.005859375,20260907_125957
2026-09-07 13:00:19.385181,0.4910888671875,0.491455078125,0.47735595703125,0.53802490234375,-0.07421875,0.23046875,0.53125,0.060546875,-0.0078125,-0.03125,20260907_125957
2026-09-07 13:00:19.479159,0.49224853515625,0.49017333984375,0.47796630859375,0.5374755859375,0.484375,-0.1484375,0.94140625,0.017578125,-0.013671875,0.01171875,20260907_125957
2026-09-07 13:00:19.586460,0.49359130859375,0.48876953125,0.47894287109375,0.53680419921875,0.85546875,-0.26171875,-0.0234375,0.013671875,-0.0078125,0.029296875,20260907_125957
2026-09-07 13:00:19.687552,0.494873046875,0.48828125,0.47894287109375,0.5360107421875,0.55859375,-0.1484375,0.0390625,-0.00390625,-0.013671875,0.02734375,20260907_125957
2026-09-07 13:00:19.785455,0.49566650390625,0.488037109375,0.478759765625,0.53558349609375,0.97265625,0.16015625,-0.46484375,-0.03125,0.00390625,-0.01953125,20260907_125957
2026-09-07 13:00:19.884543,0.494873046875,0.48712158203125,0.4796142578125,0.53643798828125,0.7109375,0.328125,0.30078125,-0.025390625,-0.005859375,0.0,20260907_125957
2026-09-07 13:00:19.984182,0.4947509765625,0.48681640625,0.4798583984375,0.53656005859375,0.3046875,-0.16796875,0.17578125,-0.005859375,0.001953125,-0.009765625,20260907_125957
2026-09-07 13:00:20.086251,0.4951171875,0.4859619140625,0.480712890625,0.53631591796875,-0.09375,-0.09375,-0.1171875,0.00390625,-0.005859375,-0.017578125,20260907_125957
2026-09-07 13:00:20.185585,0.495361328125,0.48455810546875,0.48175048828125,0.536376953125,0.43359375,0.13671875,-0.19140625,0.060546875,-0.015625,-0.03515625,20260907_125957
2026-09-07 13:00:20.284637,0.49609375,0.484375,0.4813232421875,0.53631591796875,0.1328125,0.26171875,-0.1015625,0.005859375,-0.001953125,-0.033203125,20260907_125957
2026-09-07 13:00:20.385960,0.49578857421875,0.4830322265625,0.4825439453125,0.53668212890625,0.41796875,-0.46875,0.23828125,-0.046875,-0.00390625,0.013671875,20260907_125957
2026-09-07 13:00:20.487476,0.49603271484375,0.4825439453125,0.48284912109375,0.53656005859375,0.32421875,-0.390625,-0.0703125,0.03125,-0.00390625,-0.025390625,20260907_125957
2026-09-07 13:00:20.587395,0.49664306640625,0.48199462890625,0.48309326171875,0.53631591796875,-0.12890625,0.34375,-0.140625,0.015625,-0.001953125,0.0,20260907_125957
2026-09-07 13:00:20.686912,0.49737548828125,0.4815673828125,0.48333740234375,0.535888671875,-0.05859375,-0.19140625,-0.24609375,-0.03125,-0.00390625,0.04296875,20260907_125957
2026-09-07 13:00:20.787817,0.49859619140625,0.48028564453125,0.4842529296875,0.53497314453125,-0.11328125,0.16015625,0.12109375,0.01171875,-0.00390625,-0.017578125,20260907_125957
2026-09-07 13:00:20.887751,0.49908447265625,0.47894287109375,0.4853515625,0.5347900390625,0.140625,-0.4140625,-0.1328125,-0.046875,-0.0078125,0.0234375,20260907_125957
2026-09-07 13:00:20.987685,0.49932861328125,0.47735595703125,0.4866943359375,0.53472900390625,-0.06640625,0.16015625,-0.69921875,-0.017578125,-0.001953125,0.0,20260907_125957
2026-09-07 13:00:21.092291,0.4998779296875,0.47650146484375,0.48736572265625,0.5343017578125,-0.44921875,-0.60546875,0.0078125,0.017578125,-0.001953125,-0.021484375,20260907_125957
2026-09-07 13:00:21.188378,0.5008544921875,0.47637939453125,0.48736572265625,0.5335693359375,-0.52734375,0.3125,-0.765625,0.0625,-0.001953125,-0.037109375,20260907_125957
2026-09-07 13:00:21.288269,0.50177001953125,0.47698974609375,0.4866943359375,0.53277587890625,-1.0390625,0.4296875,-0.26953125,-0.0078125,0.001953125,-0.0078125,20260907_125957
2026-09-07 13:00:21.388329,0.5015869140625,0.47637939453125,0.4873046875,0.532958984375,-0.8046875,0.19921875,-0.66796875,-0.046875,0.001953125,0.0234375,20260907_125957
2026-09-07 13:00:21.491586,0.50152587890625,0.4759521484375,0.48773193359375,0.53302001953125,-0.89453125,0.11328125,-0.4921875,0.005859375,0.001953125,0.001953125,20260907_125957
2026-09-07 13:00:21.592232,0.50177001953125,0.475830078125,0.48809814453125,0.5325927734375,-1.03125,0.53515625,-0.63671875,0.01953125,0.0078125,-0.01171875,20260907_125957
2026-09-07 13:00:21.700844,0.50213623046875,0.47589111328125,0.488037109375,0.53216552734375,-0.7109375,-0.421875,0.13671875,0.068359375,0.0,-0.033203125,20260907_125957
2026-09-07 13:00:21.801156,0.50299072265625,0.47607421875,0.48760986328125,0.5316162109375,-0.53515625,-0.53515625,0.0078125,0.015625,0.0,0.001953125,20260907_125957
2026-09-07 13:00:21.901050,0.50323486328125,0.4765625,0.4871826171875,0.53131103515625,-0.65625,-0.15234375,-0.86328125,-0.01953125,0.001953125,0.017578125,20260907_125957
2026-09-07 13:00:21.991031,0.50311279296875,0.476806640625,0.4869384765625,0.5313720703125,-0.5546875,-0.5,0.0703125,0.060546875,0.0,-0.033203125,20260907_125957
2026-09-07 13:00:22.109621,0.5030517578125,0.4771728515625,0.4866943359375,0.5313720703125,-0.70703125,0.27734375,-0.4140625,-0.009765625,0.0,0.017578125,20260907_125957
2026-09-07 13:00:22.200291,0.50262451171875,0.4783935546875,0.485595703125,0.53167724609375,-1.08984375,0.16015625,-0.05078125,0.0390625,0.00390625,-0.033203125,20260907_125957
2026-09-07 13:00:22.288870,0.50054931640625,0.4827880859375,0.48138427734375,0.533447265625,0.0859375,-0.6953125,0.05078125,0.00390625,0.001953125,0.00390625,20260907_125957
2026-09-07 13:00:22.390333,0.49786376953125,0.48699951171875,0.4771728515625,0.53594970703125,-0.1328125,0.27734375,-0.4765625,0.013671875,0.001953125,-0.029296875,20260907_125957
2026-09-07 13:00:22.486866,0.49493408203125,0.49237060546875,0.47161865234375,0.5386962890625,0.83984375,0.18359375,0.34765625,-0.044921875,-0.0078125,0.048828125,20260907_125957
2026-09-07 13:00:22.603128,0.49334716796875,0.495361328125,0.4681396484375,0.5404052734375,0.66796875,-0.1953125,0.44921875,-0.095703125,-0.013671875,0.0859375,20260907_125957
2026-09-07 13:00:22.699429,0.49383544921875,0.4949951171875,0.46771240234375,0.54071044921875,1.36328125,-0.39453125,0.26171875,0.048828125,-0.259765625,0.005859375,20260907_125957
2026-09-07 13:00:22.787701,0.4949951171875,0.494873046875,0.46710205078125,0.540283203125,1.3203125,-0.24609375,0.0859375,0.099609375,-0.013671875,-0.060546875,20260907_125957
2026-09-07 13:00:22.889074,0.49566650390625,0.4940185546875,0.46759033203125,0.53997802734375,0.69921875,0.19140625,0.59765625,0.037109375,-0.01953125,0.0234375,20260907_125957
2026-09-07 13:00:22.995780,0.49713134765625,0.494140625,0.4666748046875,0.53936767578125,0.8125,-0.375,-0.48046875,0.013671875,-0.015625,-0.0390625,20260907_125957
2026-09-07 13:00:23.088061,0.49639892578125,0.49365234375,0.4659423828125,0.5411376953125,0.33203125,-0.8671875,0.5390625,-0.107421875,-0.013671875,0.064453125,20260907_125957
2026-09-07 13:00:23.188551,0.4967041015625,0.4937744140625,0.46514892578125,0.5413818359375,0.7421875,0.06640625,0.109375,0.09765625,-0.013671875,-0.091796875,20260907_125957
2026-09-07 13:00:23.288606,0.49700927734375,0.4930419921875,0.46490478515625,0.5419921875,0.51953125,-0.3828125,0.4453125,-0.09375,-0.01953125,0.111328125,20260907_125957
2026-09-07 13:00:23.396105,0.498291015625,0.49310302734375,0.46392822265625,0.5416259765625,-0.0390625,0.390625,0.1171875,0.05078125,-0.029296875,0.015625,20260907_125957
2026-09-07 13:00:23.488160,0.501708984375,0.49298095703125,0.46173095703125,0.5404052734375,-0.4375,-0.17578125,0.4765625,0.013671875,-0.03515625,0.0703125,20260907_125957
2026-09-07 13:00:23.597254,0.501953125,0.49267578125,0.46087646484375,0.54119873046875,-0.71484375,2.4296875,-2.08203125,-0.00390625,-0.013671875,0.017578125,20260907_125957
2026-09-07 13:00:23.694740,0.501953125,0.48870849609375,0.4638671875,0.542236328125,-0.32421875,-0.4453125,0.94140625,0.0078125,-0.009765625,0.01171875,20260907_125957
2026-09-07 13:00:23.795576,0.503173828125,0.48760986328125,0.46435546875,0.54168701171875,0.71875,-0.18359375,0.17578125,0.021484375,-0.009765625,0.017578125,20260907_125957
2026-09-07 13:00:23.886147,0.5057373046875,0.484130859375,0.46728515625,0.53985595703125,0.2890625,0.0078125,0.19140625,0.025390625,0.0,0.03125,20260907_125957
2026-09-07 13:00:24.004908,0.50738525390625,0.4827880859375,0.4683837890625,0.53863525390625,0.66796875,0.19921875,-0.6875,0.037109375,-0.017578125,-0.033203125,20260907_125957
2026-09-07 13:00:24.086936,0.50921630859375,0.4805908203125,0.46923828125,0.53814697265625,0.5078125,0.12109375,-0.00390625,-0.060546875,-0.00390625,0.01953125,20260907_125957
2026-09-07 13:00:24.205176,0.50909423828125,0.4803466796875,0.46942138671875,0.53826904296875,0.84765625,0.96484375,-0.98046875,0.0234375,0.0078125,-0.021484375,20260907_125957
2026-09-07 13:00:24.293450,0.50927734375,0.4793701171875,0.47076416015625,0.53778076171875,0.73046875,-0.14453125,0.03125,0.01171875,-0.005859375,0.001953125,20260907_125957
2026-09-07 13:00:24.396063,0.5103759765625,0.479248046875,0.4708251953125,0.536865234375,0.75390625,-0.68359375,0.26171875,0.015625,0.00390625,-0.0078125,20260907_125957
2026-09-07 13:00:24.503619,0.5113525390625,0.478515625,0.4715576171875,0.535888671875,0.76171875,0.16015625,-0.44140625,-0.046875,0.009765625,0.064453125,20260907_125957
2026-09-07 13:00:24.603445,0.5126953125,0.478271484375,0.47235107421875,0.53411865234375,0.453125,0.50390625,-0.9765625,-0.017578125,0.015625,0.03515625,20260907_125957
2026-09-07 13:00:24.694681,0.5130615234375,0.47735595703125,0.4742431640625,0.532958984375,1.03515625,-0.22265625,-0.43359375,-0.044921875,0.013671875,0.025390625,20260907_125957
2026-09-07 13:00:24.792881,0.51287841796875,0.476806640625,0.47552490234375,0.532470703125,0.453125,0.54296875,-0.05078125,-0.015625,0.01171875,0.03125,20260907_125957
2026-09-07 13:00:24.904746,0.5137939453125,0.47674560546875,0.4765625,0.5306396484375,0.52734375,-0.3828125,0.07421875,-0.03515625,0.017578125,0.001953125,20260907_125957
2026-09-07 13:00:25.002829,-1.48626708984375,0.47686767578125,0.4769287109375,0.53033447265625,0.2578125,-0.078125,-0.171875,0.0546875,0.005859375,-0.017578125,20260907_125957
2026-09-07 13:00:25.102411,0.51397705078125,0.477294921875,0.4771728515625,0.52947998046875,0.54296875,0.12109375,-0.34765625,-0.03515625,0.0078125,0.00390625,20260907_125957
2026-09-07 13:00:25.203024,0.51416015625,0.4764404296875,0.4786376953125,0.52874755859375,0.42578125,0.20703125,-0.1953125,0.025390625,0.01171875,-0.013671875,20260907_125957
2026-09-07 13:00:25.282828,0.514892578125,0.47625732421875,0.47930908203125,0.527587890625,0.3359375,0.08984375,0.12890625,0.015625,0.01171875,0.0,20260907_125957
2026-09-07 13:00:25.406999,0.51666259765625,0.4761962890625,0.47991943359375,0.52532958984375,0.25,0.16796875,-0.27734375,0.04296875,0.00390625,0.01953125,20260907_125957
2026-09-07 13:00:25.502059,0.51739501953125,0.4759521484375,0.480224609375,0.52447509765625,0.76953125,0.08203125,-0.78515625,-0.013671875,0.00390625,0.044921875,20260907_125957
2026-09-07 13:00:25.603242,0.51873779296875,0.47607421875,0.480712890625,0.52264404296875,0.48046875,-0.9140625,0.42578125,0.0234375,0.01953125,-0.009765625,20260907_125957
2026-09-07 13:00:25.702487,0.51934814453125,0.4781494140625,0.47967529296875,0.5211181640625,0.8984375,-1.74609375,0.7734375,0.041015625,0.017578125,-0.01953125,20260907_125957
2026-09-07 13:00:25.802895,0.52099609375,0.479736328125,0.47894287109375,0.5186767578125,0.44921875,-0.390625,0.24609375,0.099609375,0.017578125,-0.0703125,20260907_125957
2026-09-07 13:00:25.902582,0.52227783203125,0.48162841796875,0.477294921875,0.51715087890625,0.48046875,0.23046875,0.046875,0.017578125,0.0,-0.0078125,20260907_125957
2026-09-07 13:00:26.003011,0.52313232421875,0.483154296875,0.4761962890625,0.515869140625,0.1328125,1.1953125,-0.52734375,0.037109375,0.015625,-0.037109375,20260907_125957
2026-09-07 13:00:26.103517,0.5235595703125,0.48150634765625,0.47882080078125,0.51458740234375,-0.07421875,1.109375,0.33203125,-0.171875,0.017578125,0.189453125,20260907_125957
2026-09-07 13:00:26.204753,0.5235595703125,0.4791259765625,0.48199462890625,0.51385498046875,-0.12890625,0.796875,-1.19140625,-0.1484375,0.015625,0.119140625,20260907_125957
2026-09-07 13:00:26.289345,0.52410888671875,0.47845458984375,0.48321533203125,0.51275634765625,-0.03515625,-1.05078125,0.71484375,-0.140625,0.0,0.1328125,20260907_125957
2026-09-07 13:00:26.405974,0.5233154296875,0.47528076171875,0.4873046875,0.51263427734375,1.6875,-3.1953125,0.64453125,-0.017578125,0.03125,-0.0546875,20260907_125957
2026-09-07 13:00:26.503997,0.52362060546875,0.47625732421875,0.4871826171875,0.51153564453125,-2.3515625,0.8359375,1.05859375,0.1484375,-0.01171875,-0.033203125,20260907_125957
2026-09-07 13:00:26.604542,0.5252685546875,0.47979736328125,0.48431396484375,0.50927734375,-0.8046875,0.10546875,0.0859375,-0.033203125,0.126953125,-0.09765625,20260907_125957
2026-09-07 13:00:26.703727,0.5233154296875,0.47607421875,0.48748779296875,0.51177978515625,-2.02734375,-1.5546875,-0.55078125,-0.173828125,0.001953125,0.01171875,20260907_125957
2026-09-07 13:00:26.805577,0.52154541015625,0.4700927734375,0.49359130859375,0.51312255859375,2.3828125,-1.80078125,3.80078125,-0.212890625,-0.05078125,0.201171875,20260907_125957
2026-09-07 13:00:26.903753,0.52215576171875,0.46826171875,0.49688720703125,0.5111083984375,1.03125,-2.3515625,3.66015625,-0.123046875,0.076171875,0.15625,20260907_125957
2026-09-07 13:00:27.005673,0.52325439453125,0.469970703125,0.49700927734375,0.50823974609375,-0.62109375,-1.78515625,0.40234375,0.091796875,0.03515625,-0.060546875,20260907_125957
2026-09-07 13:00:27.104987,0.5218505859375,0.47296142578125,0.49481201171875,0.509033203125,1.9375,-0.20703125,-0.1484375,0.173828125,0.134765625,-0.279296875,20260907_125957
2026-09-07 13:00:27.205023,0.519775390625,0.47314453125,0.49456787109375,0.51129150390625,2.23046875,1.41015625,0.01953125,-0.025390625,-0.056640625,-0.134765625,20260907_125957
2026-09-07 13:00:27.300360,0.5172119140625,0.470458984375,0.4984130859375,0.5125732421875,-0.0625,0.7109375,0.1875,-0.048828125,0.025390625,-0.01953125,20260907_125957
2026-09-07 13:00:27.402299,0.51300048828125,0.4659423828125,0.50384521484375,0.515625,-0.15234375,-1.01953125,-0.5859375,-0.1484375,0.017578125,0.04296875,20260907_125957
2026-09-07 13:00:27.502086,0.5113525390625,0.46624755859375,0.50518798828125,0.51568603515625,1.41015625,-1.625,3.984375,0.03125,0.013671875,-0.029296875,20260907_125957
2026-09-07 13:00:27.602906,0.5135498046875,0.46905517578125,0.50286865234375,0.51318359375,0.62890625,-0.67578125,0.73828125,0.095703125,0.013671875,-0.0234375,20260907_125957
2026-09-07 13:00:27.701502,0.5125732421875,0.47113037109375,0.50189208984375,0.51324462890625,0.7421875,-0.24609375,-0.91796875,0.01171875,0.02734375,-0.064453125,20260907_125957
2026-09-07 13:00:27.803146,0.51043701171875,0.47088623046875,0.50274658203125,0.5147705078125,-0.11328125,2.17578125,-3.26953125,-0.234375,-0.0078125,0.080078125,20260907_125957
2026-09-07 13:00:27.903021,0.50909423828125,0.46923828125,0.505615234375,0.5147705078125,-1.37109375,1.6328125,-3.42578125,-0.29296875,0.025390625,0.19921875,20260907_125957
2026-09-07 13:00:28.002742,0.5093994140625,0.46722412109375,0.509521484375,0.51239013671875,-0.13671875,0.0078125,2.91015625,-0.201171875,0.052734375,0.271484375,20260907_125957
2026-09-07 13:00:28.102411,0.5113525390625,0.4654541015625,0.51177978515625,0.50982666015625,0.296875,1.00390625,-1.2578125,0.091796875,0.0078125,0.005859375,20260907_125957
2026-09-07 13:00:28.203110,0.5125732421875,0.4632568359375,0.5137939453125,0.50860595703125,0.58984375,1.41015625,-2.703125,-0.27734375,-0.021484375,0.263671875,20260907_125957
2026-09-07 13:00:28.302709,0.51165771484375,0.4632568359375,0.51409912109375,0.50921630859375,0.00390625,0.7890625,-2.67578125,-0.138671875,0.005859375,0.0234375,20260907_125957
2026-09-07 13:00:28.402571,0.50848388671875,0.465087890625,0.5145263671875,0.51031494140625,0.671875,0.90234375,-1.6328125,-0.12109375,0.072265625,-0.072265625,20260907_125957
2026-09-07 13:00:28.501781,0.50701904296875,0.4664306640625,0.51409912109375,0.510986328125,-0.87890625,-0.29296875,-0.16796875,-0.03515625,0.01953125,0.0234375,20260907_125957
2026-09-07 13:00:28.602545,0.5069580078125,0.46783447265625,0.51324462890625,0.5106201171875,0.4765625,-0.37109375,-0.015625,-0.025390625,-0.0078125,-0.0078125,20260907_125957
2026-09-07 13:00:28.702072,0.50689697265625,0.4713134765625,0.51031494140625,0.51031494140625,0.22265625,-1.2109375,-1.35546875,0.046875,0.00390625,-0.072265625,20260907_125957
2026-09-07 13:00:28.801954,0.50567626953125,0.47412109375,0.50830078125,0.51104736328125,0.140625,-0.61328125,0.13671875,-0.01953125,0.021484375,-0.03515625,20260907_125957
2026-09-07 13:00:28.895861,0.50384521484375,0.475830078125,0.50689697265625,0.51263427734375,-0.46875,-0.140625,-0.6875,0.00390625,0.009765625,-0.0703125,20260907_125957
2026-09-07 13:00:29.002896,0.50244140625,0.47833251953125,0.50506591796875,0.51348876953125,-1.01953125,0.55859375,-0.34375,0.134765625,-0.005859375,-0.173828125,20260907_125957
2026-09-07 13:00:29.101990,0.501953125,0.478515625,0.50579833984375,0.5130615234375,-0.23046875,0.4609375,0.4296875,-0.044921875,0.015625,0.05078125,20260907_125957
2026-09-07 13:00:29.202332,0.50408935546875,0.48040771484375,0.50384521484375,0.51104736328125,0.60546875,-1.21875,1.28125,0.056640625,0.00390625,0.072265625,20260907_125957
2026-09-07 13:00:29.303152,0.5042724609375,0.48114013671875,0.5030517578125,0.51104736328125,0.19921875,-0.484375,0.82421875,0.095703125,0.001953125,-0.033203125,20260907_125957
2026-09-07 13:00:29.403079,0.50286865234375,0.4818115234375,0.50250244140625,0.5123291015625,0.0,-0.3984375,-1.3984375,0.03515625,0.0078125,-0.025390625,20260907_125957
2026-09-07 13:00:29.502616,0.50152587890625,0.48126220703125,0.503662109375,0.5130615234375,0.375,1.6015625,-0.11328125,-0.095703125,0.00390625,0.056640625,20260907_125957
2026-09-07 13:00:29.603010,0.5023193359375,0.480224609375,0.5052490234375,0.5115966796875,0.7734375,0.14453125,1.6484375,-0.123046875,0.015625,0.173828125,20260907_125957
2026-09-07 13:00:29.703473,0.503662109375,0.478759765625,0.50701904296875,0.50994873046875,0.2421875,-0.66796875,1.55859375,-0.03125,0.017578125,0.142578125,20260907_125957
2026-09-07 13:00:29.811732,0.50421142578125,0.4769287109375,0.50885009765625,0.50927734375,0.72265625,-0.51953125,-0.14453125,-0.154296875,0.005859375,0.15625,20260907_125957
2026-09-07 13:00:29.901980,0.5025634765625,0.47662353515625,0.50970458984375,0.5103759765625,1.3984375,0.12890625,0.09375,-0.111328125,0.02734375,0.060546875,20260907_125957
2026-09-07 13:00:30.000083,0.501220703125,0.4769287109375,0.50970458984375,0.5113525390625,0.9375,0.55078125,1.06640625,-0.19140625,0.01953125,0.1015625,20260907_125957
2026-09-07 13:00:30.100881,0.499267578125,0.477783203125,0.50982666015625,0.51239013671875,-0.5859375,-0.30078125,0.6796875,0.015625,0.013671875,-0.03125,20260907_125957
2026-09-07 13:00:30.200342,0.49951171875,0.47894287109375,0.50927734375,0.5115966796875,-0.31640625,-0.796875,0.453125,0.087890625,-0.005859375,-0.046875,20260907_125957
2026-09-07 13:00:30.299167,0.4998779296875,0.47979736328125,0.5084228515625,0.51129150390625,-0.1875,-0.9140625,-0.26953125,-0.048828125,0.001953125,0.08203125,20260907_125957
2026-09-07 13:00:30.401108,0.49993896484375,0.48138427734375,0.50701904296875,0.51116943359375,-0.36328125,0.16796875,0.1015625,0.0234375,0.01171875,-0.03125,20260907_125957
2026-09-07 13:00:30.500589,0.49969482421875,0.48333740234375,0.5052490234375,0.51129150390625,0.2890625,-0.4765625,-0.44140625,-0.0078125,0.01171875,-0.064453125,20260907_125957
2026-09-07 13:00:30.600263,0.498779296875,0.48504638671875,0.5040283203125,0.51177978515625,-0.26171875,-0.66796875,-1.4765625,0.052734375,0.005859375,-0.083984375,20260907_125957
2026-09-07 13:00:30.700389,0.49969482421875,0.4852294921875,0.5037841796875,0.510986328125,-1.17578125,0.55859375,-0.07421875,-0.00390625,0.0234375,0.078125,20260907_125957
2026-09-07 13:00:30.800943,0.5010986328125,0.4844970703125,0.50457763671875,0.50946044921875,0.07421875,0.90234375,1.07421875,0.123046875,0.0,-0.068359375,20260907_125957
2026-09-07 13:00:30.900391,0.50115966796875,0.48211669921875,0.507080078125,0.50921630859375,-0.2109375,0.78125,-1.171875,0.00390625,-0.005859375,0.025390625,20260907_125957
2026-09-07 13:00:31.000137,0.5018310546875,0.478759765625,0.51025390625,0.50848388671875,0.203125,-0.3828125,-0.57421875,-0.08984375,-0.0078125,0.123046875,20260907_125957
2026-09-07 13:00:31.100642,0.50390625,0.47857666015625,0.5101318359375,0.50677490234375,-0.82421875,1.79296875,-0.0625,0.015625,0.03125,-0.044921875,20260907_125957
2026-09-07 13:00:31.200243,0.50604248046875,0.48052978515625,0.50872802734375,0.504150390625,-1.36328125,-2.421875,0.6015625,0.083984375,0.046875,-0.0546875,20260907_125957
2026-09-07 13:00:31.299916,0.50665283203125,0.48187255859375,0.50653076171875,0.5045166015625,-0.16796875,-0.8828125,0.26953125,0.04296875,-0.01953125,-0.056640625,20260907_125957
2026-09-07 13:00:31.400120,0.50482177734375,0.48284912109375,0.50555419921875,0.50634765625,-0.45703125,0.07421875,-0.37890625,0.005859375,0.001953125,-0.078125,20260907_125957
2026-09-07 13:00:31.629259,0.50396728515625,0.4844970703125,0.5050048828125,0.5062255859375,-1.60546875,0.22265625,-0.13671875,0.09765625,-0.01953125,-0.068359375,20260907_125957
2026-09-07 13:00:31.726355,0.50543212890625,0.4818115234375,0.50628662109375,0.50604248046875,0.69921875,-0.9296875,-0.07421875,0.009765625,-0.017578125,-0.044921875,20260907_125957
2026-09-07 13:00:31.826119,0.5048828125,0.48065185546875,0.50677490234375,0.5072021484375,0.80078125,-0.15234375,-0.40234375,-0.046875,-0.001953125,0.005859375,20260907_125957
2026-09-07 13:00:31.926684,0.5042724609375,0.4801025390625,0.50701904296875,0.50811767578125,-0.265625,0.27734375,0.33203125,0.009765625,-0.009765625,-0.03515625,20260907_125957
2026-09-07 13:00:32.027436,0.50384521484375,0.48028564453125,0.50634765625,0.50897216796875,-0.11328125,0.27734375,0.15234375,-0.03125,-0.009765625,-0.052734375,20260907_125957
2026-09-07 13:00:32.127059,0.50286865234375,0.4798583984375,0.506103515625,0.5106201171875,-0.08984375,-0.25390625,-1.078125,0.052734375,-0.005859375,-0.115234375,20260907_125957
2026-09-07 13:00:32.235586,0.50244140625,0.47808837890625,0.50714111328125,0.51165771484375,0.1875,0.4765625,0.10546875,0.0546875,-0.013671875,0.001953125,20260907_125957
2026-09-07 13:00:32.325817,0.504150390625,0.477783203125,0.5067138671875,0.51068115234375,-0.08984375,-0.55859375,-0.15234375,-0.0234375,-0.01953125,0.076171875,20260907_125957
2026-09-07 13:00:32.435300,0.50543212890625,0.4771728515625,0.506591796875,0.5101318359375,1.16015625,-1.05859375,0.69921875,-0.033203125,-0.025390625,0.07421875,20260907_125957
2026-09-07 13:00:32.526136,0.5067138671875,0.4759521484375,0.50665283203125,0.5098876953125,0.16796875,0.4375,0.13671875,-0.119140625,-0.021484375,0.130859375,20260907_125957
2026-09-07 13:00:32.636634,0.5078125,0.47552490234375,0.50616455078125,0.50970458984375,1.1953125,0.12890625,0.20703125,0.08203125,0.00390625,-0.078125,20260907_125957
2026-09-07 13:00:32.734904,0.50787353515625,0.475341796875,0.5062255859375,0.509765625,0.21484375,-0.67578125,-0.046875,-0.033203125,-0.0078125,0.05078125,20260907_125957
2026-09-07 13:00:32.834084,0.50823974609375,0.4755859375,0.50555419921875,0.50982666015625,-0.05078125,0.75,-0.19921875,0.025390625,-0.01171875,-0.00390625,20260907_125957
2026-09-07 13:00:32.933842,0.50836181640625,0.474609375,0.505859375,0.51031494140625,-0.44921875,0.66796875,-0.22265625,0.015625,-0.25390625,-0.013671875,20260907_125957
2026-09-07 13:00:33.034504,0.5084228515625,0.47381591796875,0.50628662109375,0.51055908203125,0.22265625,-0.90625,0.30859375,0.046875,-0.0078125,-0.021484375,20260907_125957
2026-09-07 13:00:33.133481,0.50860595703125,0.47332763671875,0.50653076171875,0.5106201171875,0.26171875,-0.328125,0.4296875,0.01171875,-0.00390625,-0.021484375,20260907_125957
2026-09-07 13:00:33.234034,0.5084228515625,0.47314453125,0.50628662109375,0.51116943359375,-0.0390625,0.0625,0.11328125,0.021484375,-0.005859375,-0.037109375,20260907_125957
2026-09-07 13:00:33.333922,0.5081787109375,0.47369384765625,0.5052490234375,0.511962890625,0.140625,0.14453125,0.32421875,-0.017578125,-0.005859375,0.00390625,20260907_125957
2026-09-07 13:00:33.435077,0.50799560546875,0.47369384765625,0.505126953125,0.51226806640625,-0.0078125,0.453125,0.26953125,-0.021484375,-0.005859375,0.00390625,20260907_125957
2026-09-07 13:00:33.533053,0.5076904296875,0.4720458984375,0.50640869140625,0.51275634765625,0.19140625,-0.62890625,0.50390625,0.0390625,-0.005859375,-0.029296875,20260907_125957
2026-09-07 13:00:33.634265,0.50775146484375,0.47113037109375,0.5068359375,0.51318359375,0.30859375,-0.12109375,0.27734375,0.013671875,0.001953125,-0.056640625,20260907_125957
2026-09-07 13:00:33.734355,0.5074462890625,0.47113037109375,0.5067138671875,-1.48638916015625,0.26953125,-0.0859375,-0.1171875,0.0078125,-0.005859375,-0.005859375,20260907_125957
2026-09-07 13:00:33.834007,0.50714111328125,0.47100830078125,0.506591796875,0.51409912109375,0.67578125,-0.23828125,-0.14453125,-0.041015625,-0.009765625,0.025390625,20260907_125957
2026-09-07 13:00:33.934207,0.507080078125,0.47027587890625,0.507080078125,0.514404296875,0.78125,-1.04296875,0.4140625,-0.052734375,-0.005859375,0.0703125,20260907_125957
2026-09-07 13:00:34.036246,0.5089111328125,0.46875,0.50811767578125,0.512939453125,-0.359375,0.375,-0.34375,-0.04296875,-0.013671875,0.12109375,20260907_125957
2026-09-07 13:00:34.136068,0.51165771484375,0.46856689453125,0.5079345703125,0.51055908203125,-0.67578125,0.17578125,0.75,0.00390625,-0.01171875,0.111328125,20260907_125957
2026-09-07 13:00:34.235085,0.5140380859375,0.46954345703125,0.50640869140625,0.5087890625,-0.5,1.32421875,-0.3203125,-0.009765625,-0.00390625,0.03515625,20260907_125957
2026-09-07 13:00:34.334577,0.51373291015625,0.4698486328125,0.5059814453125,0.50921630859375,0.28515625,0.4453125,-0.18359375,-0.03125,0.013671875,-0.0234375,20260907_125957
2026-09-07 13:00:34.436629,0.51153564453125,0.4703369140625,0.50604248046875,0.51092529296875,-0.49609375,0.75,-1.5234375,-0.009765625,0.015625,-0.048828125,20260907_125957
2026-09-07 13:00:34.535672,0.5103759765625,0.470947265625,0.50634765625,0.51123046875,-0.16015625,-0.3203125,0.0859375,-0.052734375,0.01171875,0.048828125,20260907_125957
2026-09-07 13:00:34.635498,0.51019287109375,0.4710693359375,0.50665283203125,0.510986328125,-0.11328125,0.0546875,0.23828125,-0.00390625,0.00390625,0.021484375,20260907_125957
2026-09-07 13:00:34.736076,0.5106201171875,0.46978759765625,0.50762939453125,0.5107421875,0.33984375,-0.13671875,-0.22265625,-0.12890625,-0.0078125,0.16015625,20260907_125957
2026-09-07 13:00:34.836609,0.51055908203125,0.46990966796875,0.50726318359375,0.5111083984375,-0.08984375,0.08203125,0.0078125,-0.021484375,0.00390625,-0.0078125,20260907_125957
2026-09-07 13:00:34.936763,0.50970458984375,0.47052001953125,0.50701904296875,0.5115966796875,-0.2890625,-0.0625,0.26953125,-0.048828125,0.0078125,0.02734375,20260907_125957
2026-09-07 13:00:35.040559,0.50933837890625,0.4716796875,0.5062255859375,0.51165771484375,-0.50390625,0.8203125,-0.2890625,0.04296875,0.01171875,-0.05859375,20260907_125957
2026-09-07 13:00:35.139268,0.5093994140625,0.471923828125,0.506103515625,0.51153564453125,-0.28125,0.54296875,0.0,-0.017578125,0.001953125,0.0,20260907_125957
2026-09-07 13:00:35.237920,0.5096435546875,0.47216796875,0.505859375,0.51123046875,-0.54296875,0.3203125,0.22265625,-0.0390625,0.0,0.0625,20260907_125957
2026-09-07 13:00:35.335100,0.50958251953125,0.4716796875,0.50640869140625,0.51129150390625,-0.12109375,-0.29296875,0.0703125,-0.009765625,0.0,0.013671875,20260907_125957
2026-09-07 13:00:35.434714,0.5093994140625,0.4727783203125,0.5054931640625,0.5113525390625,0.0546875,-0.51953125,-0.11328125,0.00390625,0.00390625,0.015625,20260907_125957
2026-09-07 13:00:35.533123,0.50909423828125,0.47344970703125,0.50482177734375,0.51165771484375,-0.140625,0.4296875,-0.40234375,-0.0078125,0.001953125,-0.0078125,20260907_125957
2026-09-07 13:00:35.634484,0.5093994140625,0.47393798828125,0.50421142578125,0.51153564453125,-0.1640625,-0.3359375,-0.2265625,-0.013671875,0.0,0.02734375,20260907_125957
2026-09-07 13:00:35.734620,0.50982666015625,0.4735107421875,0.50457763671875,0.51116943359375,-0.1953125,0.046875,-0.2265625,-0.009765625,-0.001953125,0.013671875,20260907_125957
2026-09-07 13:00:35.834153,0.51055908203125,0.47406005859375,0.50396728515625,0.510498046875,0.38671875,-0.99609375,0.25390625,-0.03125,0.00390625,0.04296875,20260907_125957
2026-09-07 13:00:35.934086,0.51068115234375,0.4747314453125,0.50341796875,0.51025390625,-0.79296875,1.1484375,-0.49609375,0.10546875,0.005859375,-0.1015625,20260907_125957
2026-09-07 13:00:36.034649,0.5091552734375,0.4757080078125,0.50274658203125,0.51153564453125,-0.72265625,-0.03125,-0.42578125,0.037109375,0.005859375,-0.140625,20260907_125957
2026-09-07 13:00:36.134388,0.507080078125,0.47613525390625,0.50262451171875,0.5133056640625,-0.9921875,1.578125,-1.0625,0.03515625,0.015625,-0.125,20260907_125957
2026-09-07 13:00:36.233952,0.50640869140625,0.47650146484375,0.503173828125,0.51312255859375,-1.88671875,-2.03125,0.9921875,0.11328125,0.041015625,-0.158203125,20260907_125957
2026-09-07 13:00:36.334386,0.507568359375,0.477294921875,0.5023193359375,0.5120849609375,0.04296875,-0.4609375,0.26953125,0.001953125,0.00390625,0.0859375,20260907_125957
2026-09-07 13:00:36.435323,0.50799560546875,0.477783203125,0.50146484375,0.51202392578125,-0.90625,1.109375,-0.640625,0.037109375,-0.005859375,-0.025390625,20260907_125957
2026-09-07 13:00:36.534714,0.50775146484375,0.4775390625,0.50128173828125,0.5126953125,-0.69921875,1.02734375,-0.53125,-0.025390625,-0.0078125,0.0,20260907_125957
2026-09-07 13:00:36.634449,0.50701904296875,0.4774169921875,0.5018310546875,0.51300048828125,-1.1484375,-1.1640625,-0.43359375,0.02734375,0.013671875,-0.083984375,20260907_125957
2026-09-07 13:00:36.735211,0.50616455078125,0.47802734375,0.50201416015625,0.51312255859375,-0.40625,0.08984375,0.28515625,0.072265625,0.0234375,-0.08203125,20260907_125957
2026-09-07 13:00:36.836215,0.50592041015625,0.47894287109375,0.5010986328125,0.51336669921875,-0.453125,-0.67578125,-0.3203125,-0.025390625,0.00390625,0.021484375,20260907_125957
2026-09-07 13:00:36.937647,0.50531005859375,0.4815673828125,0.49847412109375,0.51409912109375,0.16796875,-1.51953125,0.09375,-0.033203125,-0.00390625,0.001953125,20260907_125957
2026-09-07 13:00:37.037503,0.5045166015625,0.48358154296875,0.49658203125,0.51483154296875,-1.359375,-0.4765625,0.15625,0.001953125,0.005859375,-0.068359375,20260907_125957
2026-09-07 13:00:37.134601,0.50390625,0.48516845703125,0.49493408203125,0.51544189453125,-0.83984375,0.796875,0.37109375,0.123046875,0.01171875,-0.13671875,20260907_125957
2026-09-07 13:00:37.234975,0.5040283203125,0.48443603515625,0.49542236328125,0.51556396484375,-1.3125,0.7890625,0.03515625,-0.08203125,-0.009765625,0.072265625,20260907_125957
2026-09-07 13:00:37.334156,0.50390625,0.48443603515625,0.49542236328125,0.5157470703125,-0.41015625,0.04296875,-0.35546875,0.01953125,0.00390625,-0.001953125,20260907_125957
2026-09-07 13:00:37.435089,0.504638671875,0.4840087890625,0.4957275390625,0.51507568359375,0.1953125,-0.73046875,0.48828125,-0.150390625,-0.00390625,0.16796875,20260907_125957
2026-09-07 13:00:37.534972,0.5047607421875,0.48406982421875,0.49560546875,0.5150146484375,-0.25390625,-0.84375,0.37890625,0.05078125,0.001953125,-0.017578125,20260907_125957
2026-09-07 13:00:37.642593,0.503662109375,0.4857177734375,0.49395751953125,0.51617431640625,-0.421875,0.3125,-0.140625,0.01953125,0.0,-0.05078125,20260907_125957
2026-09-07 13:00:37.734118,0.502685546875,0.4874267578125,0.49237060546875,0.51702880859375,-1.1953125,0.390625,-0.01953125,-0.0234375,0.005859375,-0.013671875,20260907_125957
2026-09-07 13:00:37.843528,0.50238037109375,0.488037109375,0.49163818359375,0.51739501953125,-0.89453125,0.53515625,-0.1171875,-0.005859375,-0.00390625,0.015625,20260907_125957
2026-09-07 13:00:37.931427,0.5020751953125,0.48822021484375,0.49127197265625,0.51788330078125,-0.92578125,0.19140625,-0.39453125,0.033203125,-0.009765625,-0.015625,20260907_125957
2026-09-07 13:00:38.031349,0.50115966796875,0.489013671875,0.4903564453125,0.5189208984375,-0.6796875,-0.421875,-0.23828125,-0.033203125,0.00390625,-0.00390625,20260907_125957
2026-09-07 13:00:38.131677,0.5,0.489501953125,0.4898681640625,0.52001953125,-0.2578125,-0.5390625,0.71875,-0.0078125,0.005859375,-0.01171875,20260907_125957
2026-09-07 13:00:38.234068,0.499755859375,0.490234375,0.48883056640625,0.5205078125,-0.72265625,0.46484375,0.03515625,0.01171875,-0.0078125,-0.001953125,20260907_125957
2026-09-07 13:00:38.332217,0.50042724609375,0.4912109375,0.4873046875,0.5203857421875,-0.140625,0.12109375,-0.31640625,0.0703125,-0.01171875,-0.017578125,20260907_125957
2026-09-07 13:00:38.431926,0.49993896484375,0.49200439453125,0.48626708984375,0.52105712890625,-0.171875,-0.4609375,-0.0078125,-0.03515625,0.0,0.001953125,20260907_125957
2026-09-07 13:00:38.532111,0.49932861328125,0.49163818359375,0.486328125,0.52191162109375,-0.25390625,0.19140625,0.328125,-0.115234375,-0.015625,0.10546875,20260907_125957
2026-09-07 13:00:38.632424,0.49810791015625,0.49261474609375,0.485107421875,0.52337646484375,-0.46875,0.57421875,0.00390625,-0.04296875,-0.001953125,0.046875,20260907_125957
2026-09-07 13:00:38.732084,0.49688720703125,0.4931640625,0.484619140625,0.5244140625,-0.359375,0.2890625,0.02734375,0.001953125,-0.001953125,-0.001953125,20260907_125957
2026-09-07 13:00:38.831496,0.49578857421875,0.49371337890625,0.484130859375,0.525390625,-0.20703125,-1.28125,0.7578125,-0.08984375,0.009765625,0.076171875,20260907_125957
2026-09-07 13:00:38.931819,0.49517822265625,0.49554443359375,0.482177734375,0.52606201171875,-0.60546875,0.3359375,-0.22265625,0.0,-0.01171875,0.00390625,20260907_125957
2026-09-07 13:00:39.031920,0.49481201171875,0.49676513671875,0.4805908203125,0.52667236328125,-0.765625,0.91796875,-0.32421875,0.015625,-0.005859375,-0.021484375,20260907_125957
2026-09-07 13:00:39.131620,0.49432373046875,0.4970703125,0.48016357421875,0.52728271484375,-0.3203125,0.765625,-0.1796875,-0.00390625,0.0,-0.005859375,20260907_125957
2026-09-07 13:00:39.231733,0.49285888671875,0.49761962890625,0.4796142578125,0.5286865234375,-1.1015625,2.14453125,-0.84375,-0.171875,-0.0078125,0.162109375,20260907_125957
2026-09-07 13:00:39.339953,0.4918212890625,0.49951171875,0.4775390625,0.5296630859375,-0.45703125,0.18359375,-1.21875,-0.08203125,-0.0078125,0.087890625,20260907_125957
2026-09-07 13:00:39.430744,0.49041748046875,0.49951171875,0.47723388671875,0.53125,0.984375,-0.5546875,0.39453125,0.013671875,0.005859375,-0.001953125,20260907_125957
2026-09-07 13:00:39.539056,0.48980712890625,0.49945068359375,0.47747802734375,0.5316162109375,0.77734375,-0.31640625,0.09765625,-0.029296875,0.0,0.052734375,20260907_125957
2026-09-07 13:00:39.630298,0.490234375,0.50054931640625,0.47637939453125,0.53118896484375,1.03515625,0.56640625,0.37890625,0.013671875,-0.01171875,0.0,20260907_125957
2026-09-07 13:00:39.739001,0.48992919921875,0.50115966796875,0.47528076171875,0.53192138671875,1.42578125,0.44921875,0.41015625,-0.021484375,-0.01171875,-0.005859375,20260907_125957
2026-09-07 13:00:39.838120,0.4881591796875,0.50238037109375,0.47381591796875,0.53369140625,0.73046875,0.34375,0.12109375,0.080078125,0.0078125,-0.099609375,20260907_125957
2026-09-07 13:00:39.939722,0.48626708984375,0.50457763671875,0.471923828125,0.53497314453125,0.9296875,0.53515625,0.2265625,0.001953125,0.0,0.0078125,20260907_125957
2026-09-07 13:00:40.039145,0.48583984375,0.50433349609375,0.47216796875,0.535400390625,1.07421875,-1.04296875,0.5859375,0.044921875,0.0,-0.001953125,20260907_125957
2026-09-07 13:00:40.139265,0.486328125,0.50384521484375,0.47210693359375,0.53546142578125,1.9453125,-0.35546875,-0.01953125,0.041015625,-0.005859375,0.0078125,20260907_125957
2026-09-07 13:00:40.238552,0.48687744140625,0.50372314453125,0.47210693359375,0.53509521484375,1.46875,-0.390625,0.44140625,-0.0078125,0.00390625,0.02734375,20260907_125957
2026-09-07 13:00:40.340525,0.48760986328125,0.504150390625,0.47161865234375,0.534423828125,1.23828125,-0.61328125,0.140625,0.064453125,-0.005859375,-0.03125,20260907_125957
2026-09-07 13:00:40.440344,0.48828125,0.5035400390625,0.47174072265625,0.5343017578125,1.3671875,0.49609375,0.01171875,0.015625,-0.013671875,0.001953125,20260907_125957
2026-09-07 13:00:40.541302,0.489013671875,0.5028076171875,0.47198486328125,0.53411865234375,1.015625,-0.5390625,0.33984375,-0.025390625,0.005859375,0.001953125,20260907_125957
2026-09-07 13:00:40.639986,0.48846435546875,0.50244140625,0.47247314453125,0.53448486328125,0.6328125,0.46484375,0.30078125,0.0625,0.0,-0.046875,20260907_125957
2026-09-07 13:00:40.741042,0.48895263671875,0.50274658203125,0.47216796875,0.5340576171875,0.31640625,0.96484375,-0.33984375,-0.03515625,-0.005859375,0.029296875,20260907_125957
2026-09-07 13:00:40.842248,0.489501953125,0.50250244140625,0.47210693359375,0.53387451171875,0.57421875,-0.4921875,-0.08984375,-0.03125,-0.00390625,0.005859375,20260907_125957
2026-09-07 13:00:40.941044,0.4896240234375,0.5025634765625,0.47186279296875,0.533935546875,1.11328125,-0.5234375,0.0859375,-0.009765625,0.001953125,-0.03515625,20260907_125957
2026-09-07 13:00:41.041303,0.489013671875,0.501708984375,0.47283935546875,0.53436279296875,0.7421875,0.08984375,0.04296875,0.03515625,0.00390625,-0.046875,20260907_125957
2026-09-07 13:00:41.141857,0.48883056640625,0.502197265625,0.47235107421875,0.5345458984375,0.296875,0.17578125,0.29296875,-0.046875,-0.0078125,0.01953125,20260907_125957
2026-09-07 13:00:41.241099,0.48907470703125,0.501220703125,0.47308349609375,0.53460693359375,0.60546875,0.48828125,0.43359375,0.02734375,-0.0078125,-0.009765625,20260907_125957
2026-09-07 13:00:41.341450,0.489990234375,0.5006103515625,0.4732666015625,0.53411865234375,0.87109375,-0.4296875,0.0546875,0.09765625,-0.015625,-0.06640625,20260907_125957
2026-09-07 13:00:41.441395,0.49102783203125,0.50018310546875,0.4730224609375,0.5338134765625,-1.1953125,-0.97265625,-0.3203125,0.021484375,-0.01171875,-0.017578125,20260907_125957
2026-09-07 13:00:41.541338,0.4913330078125,0.49908447265625,0.47344970703125,0.5341796875,-1.671875,0.3671875,-0.07421875,-0.041015625,-0.01953125,0.0234375,20260907_125957
2026-09-07 13:00:41.641162,0.49151611328125,0.49761962890625,0.47412109375,0.5347900390625,-1.359375,-0.55078125,-0.05859375,-0.083984375,-0.01953125,0.05078125,20260907_125957
2026-09-07 13:00:41.740947,0.49163818359375,0.4969482421875,0.47406005859375,0.535400390625,-1.80078125,-0.66015625,0.24609375,0.02734375,-0.015625,-0.06640625,20260907_125957
2026-09-07 13:00:41.841632,0.492919921875,0.494873046875,0.47515869140625,0.53509521484375,-2.3359375,0.26171875,0.39453125,0.015625,-0.025390625,-0.0078125,20260907_125957
2026-09-07 13:00:41.941690,0.49444580078125,0.4940185546875,0.47479248046875,0.53485107421875,-2.7421875,0.64453125,-0.50390625,0.068359375,-0.025390625,-0.033203125,20260907_125957
2026-09-07 13:00:42.040947,0.4962158203125,0.49334716796875,0.47393798828125,0.5345458984375,-2.37890625,0.3359375,-0.125,0.037109375,-0.033203125,0.009765625,20260907_125957
2026-09-07 13:00:42.142061,0.498291015625,0.49267578125,0.47283935546875,0.53424072265625,-2.26953125,-0.09375,-0.640625,-0.013671875,-0.029296875,0.005859375,20260907_125957
2026-09-07 13:00:42.243954,0.498779296875,0.4921875,0.47198486328125,0.5350341796875,-2.5234375,-0.1015625,-0.59375,-0.021484375,-0.021484375,-0.009765625,20260907_125957
2026-09-07 13:00:42.341295,0.49871826171875,0.4921875,0.47088623046875,0.5360107421875,-2.3046875,0.05078125,-0.5078125,0.021484375,-0.017578125,-0.03125,20260907_125957
2026-09-07 13:00:42.440368,0.4986572265625,0.491943359375,0.47015380859375,0.53692626953125,-0.11328125,-0.3515625,-0.05078125,0.005859375,-0.01953125,0.02734375,20260907_125957
2026-09-07 13:00:42.541734,0.49053955078125,0.50689697265625,0.45269775390625,0.54541015625,0.56640625,0.23046875,0.0703125,-0.01171875,-0.01953125,0.017578125,20260907_125957
2026-09-07 13:00:42.642034,0.47991943359375,0.52386474609375,0.4324951171875,0.55511474609375,0.50390625,0.390625,0.3046875,-0.005859375,-0.025390625,0.01171875,20260907_125957
2026-09-07 13:00:42.741964,0.4744873046875,0.5318603515625,0.42205810546875,0.5601806640625,0.3125,0.42578125,0.12890625,-0.01171875,-0.01171875,0.005859375,20260907_125957
2026-09-07 13:00:42.848953,0.470947265625,0.5362548828125,0.41619873046875,0.56341552734375,0.07421875,-0.3359375,0.44140625,0.02734375,-0.013671875,0.001953125,20260907_125957
2026-09-07 13:00:42.942399,0.46826171875,0.53973388671875,0.41064453125,0.56640625,0.39453125,-0.25,-0.12890625,0.02734375,-0.017578125,-0.001953125,20260907_125957
2026-09-07 13:00:43.049638,0.46746826171875,0.5401611328125,0.40936279296875,0.5675048828125,0.46875,-0.31640625,-0.08984375,0.02734375,-0.015625,0.001953125,20260907_125957
2026-09-07 13:00:43.149560,0.46722412109375,0.5404052734375,0.407470703125,0.56884765625,0.46484375,0.04296875,-0.1484375,0.005859375,-0.0078125,0.001953125,20260907_125957
2026-09-07 13:00:43.237914,0.467529296875,0.5401611328125,0.4071044921875,0.569091796875,0.2265625,0.19921875,-0.1796875,0.001953125,-0.01171875,-0.00390625,20260907_125957
2026-09-07 13:00:43.351041,0.46759033203125,0.53985595703125,0.40704345703125,0.56939697265625,0.54296875,0.19921875,-0.02734375,-0.021484375,-0.0078125,0.005859375,20260907_125957
2026-09-07 13:00:43.438886,0.467529296875,0.5390625,0.4072265625,0.570068359375,0.6484375,-0.03125,-0.02734375,-0.017578125,0.001953125,0.005859375,20260907_125957
2026-09-07 13:00:43.539825,0.46728515625,0.5389404296875,0.40753173828125,0.5701904296875,0.640625,-0.26953125,0.265625,-0.029296875,0.00390625,0.0078125,20260907_125957
2026-09-07 13:00:43.640132,0.4730224609375,0.5352783203125,0.41290283203125,0.5650634765625,0.4921875,0.05859375,0.41015625,-0.01171875,-0.005859375,0.0,20260907_125957
2026-09-07 13:00:43.739625,0.47698974609375,0.53125,0.417236328125,0.56231689453125,0.6796875,-0.31640625,0.4609375,0.015625,-0.01171875,0.005859375,20260907_125957
2026-09-07 13:00:43.839454,0.48046875,0.5267333984375,0.42156982421875,0.560302734375,0.57421875,-0.20703125,0.11328125,0.025390625,-0.00390625,-0.0078125,20260907_125957
2026-09-07 13:00:43.946705,0.4825439453125,0.524658203125,0.42352294921875,0.55902099609375,0.3125,0.10546875,0.03125,0.01171875,-0.00390625,-0.00390625,20260907_125957
2026-09-07 13:00:44.038056,0.48321533203125,0.52490234375,0.4228515625,0.5587158203125,0.2578125,0.14453125,-0.19140625,0.005859375,-0.0078125,0.0,20260907_125957
2026-09-07 13:00:44.139307,0.4832763671875,0.5247802734375,0.42279052734375,0.558837890625,0.28125,0.08203125,-0.19140625,-0.017578125,-0.001953125,0.0,20260907_125957
2026-09-07 13:00:44.246914,0.48626708984375,0.5205078125,0.42755126953125,0.55657958984375,-0.015625,-0.1015625,0.0078125,-0.013671875,0.0,0.001953125,20260907_125957
2026-09-07 13:00:44.338311,0.49261474609375,0.51123046875,0.43792724609375,0.551513671875,0.0234375,-0.109375,0.16015625,-0.01171875,-0.00390625,0.001953125,20260907_125957
2026-09-07 13:00:44.445491,0.49371337890625,0.50927734375,0.43994140625,0.55078125,0.22265625,-0.0078125,0.16796875,0.01171875,-0.005859375,0.001953125,20260907_125957
2026-09-07 13:00:44.538280,0.4964599609375,0.50396728515625,0.44500732421875,0.54913330078125,0.3046875,-0.0234375,0.02734375,-0.005859375,-0.00390625,0.0078125,20260907_125957
2026-09-07 13:00:44.646904,0.49725341796875,0.5023193359375,0.4466552734375,0.54852294921875,0.234375,0.0234375,-0.0546875,0.005859375,0.0,0.00390625,20260907_125957
2026-09-07 13:00:44.737973,0.49981689453125,0.49774169921875,0.451416015625,0.5465087890625,0.109375,-0.0234375,-0.078125,-0.001953125,0.0,0.001953125,20260907_125957
2026-09-07 13:00:44.846101,0.50067138671875,0.49639892578125,0.45281982421875,0.5457763671875,-0.01953125,-0.0234375,0.01171875,-0.005859375,0.0,0.00390625,20260907_125957
2026-09-07 13:00:44.945952,0.5029296875,0.49298095703125,0.456298828125,0.54388427734375,0.01953125,0.05859375,0.04296875,-0.00390625,0.001953125,0.00390625,20260907_125957
2026-09-07 13:00:45.045262,0.50421142578125,0.4910888671875,0.45831298828125,0.542724609375,0.23828125,0.0078125,0.09765625,0.00390625,-0.001953125,0.01171875,20260907_125957
2026-09-07 13:00:45.144932,0.50579833984375,0.48870849609375,0.46063232421875,0.54144287109375,0.45703125,-0.0234375,0.07421875,0.001953125,0.0,0.005859375,20260907_125957
2026-09-07 13:00:45.245279,0.5078125,0.4857177734375,0.46356201171875,0.5396728515625,0.44140625,-0.046875,0.00390625,0.001953125,-0.001953125,0.00390625,20260907_125957
2026-09-07 13:00:45.346661,0.5101318359375,0.482421875,0.4669189453125,0.53759765625,0.16796875,-0.03125,-0.00390625,-0.00390625,0.0,0.0,20260907_125957
2026-09-07 13:00:45.454618,0.5123291015625,0.4791259765625,0.47021484375,0.53558349609375,0.03515625,0.08203125,0.02734375,0.00390625,-0.00390625,0.0,20260907_125957
2026-09-07 13:00:45.542667,0.51434326171875,0.47625732421875,0.4730224609375,0.53369140625,0.00390625,-0.046875,-0.01953125,-0.0078125,0.0,0.001953125,20260907_125957
2026-09-07 13:00:45.646554,0.51593017578125,0.473876953125,0.47540283203125,0.5322265625,0.02734375,0.0,0.01171875,0.0078125,0.001953125,-0.001953125,20260907_125957
2026-09-07 13:00:45.755016,0.5177001953125,0.47113037109375,0.47802734375,0.530517578125,-0.01953125,0.0,0.01171875,0.0,-0.001953125,0.0,20260907_125957
2026-09-07 13:00:45.844871,0.5181884765625,0.47039794921875,0.478759765625,0.53009033203125,0.07421875,0.0,0.00390625,0.0078125,0.0,-0.00390625,20260907_125957
2026-09-07 13:00:45.954596,0.51904296875,0.46917724609375,0.4798583984375,0.52935791015625,0.10546875,-0.0390625,0.00390625,-0.005859375,0.0,0.00390625,20260907_125957
2026-09-07 13:00:46.053193,0.51959228515625,0.4683837890625,0.48077392578125,0.52874755859375,0.09375,0.0078125,0.04296875,0.00390625,0.0,-0.00390625,20260907_125957
2026-09-07 13:00:46.153900,0.52020263671875,0.46722412109375,0.4818115234375,0.528076171875,0.0546875,-0.03125,0.03515625,-0.0078125,0.0,0.005859375,20260907_125957
2026-09-07 13:00:46.252224,0.5208740234375,0.46630859375,0.482666015625,0.527587890625,0.09375,0.0078125,-0.01171875,0.00390625,0.0,-0.005859375,20260907_125957
2026-09-07 13:00:46.353032,0.52117919921875,0.4656982421875,0.4832763671875,0.5272216796875,0.125,0.0078125,0.02734375,-0.005859375,-0.001953125,0.00390625,20260907_125957
2026-09-07 13:00:46.453023,0.52154541015625,0.465087890625,0.4837646484375,0.52691650390625,0.26171875,0.046875,0.0625,0.0,0.001953125,-0.001953125,20260907_125957
2026-09-07 13:00:46.553141,0.5220947265625,0.46417236328125,0.48455810546875,0.52642822265625,0.16796875,-0.078125,0.0859375,-0.009765625,-0.001953125,0.005859375,20260907_125957
2026-09-07 13:00:46.651842,0.523681640625,0.461669921875,0.4869384765625,0.52496337890625,0.15234375,-0.0234375,0.0703125,0.00390625,-0.00390625,0.0,20260907_125957
2026-09-07 13:00:46.751512,0.52545166015625,0.45843505859375,0.48974609375,0.52337646484375,0.12109375,0.03125,0.03125,-0.009765625,-0.005859375,0.001953125,20260907_125957
2026-09-07 13:00:46.853281,0.5264892578125,0.45648193359375,0.4912109375,0.522705078125,0.01171875,-0.0078125,0.0234375,0.005859375,-0.0078125,-0.0078125,20260907_125957
2026-09-07 13:00:46.953166,0.52734375,0.4547119140625,0.49237060546875,0.522216796875,-0.04296875,-0.0078125,0.046875,-0.0078125,-0.009765625,0.0,20260907_125957
2026-09-07 13:00:47.052615,0.52789306640625,0.45379638671875,0.49261474609375,0.52227783203125,0.03515625,0.03125,0.0703125,0.01171875,-0.013671875,-0.00390625,20260907_125957
2026-09-07 13:00:47.153029,0.52838134765625,0.45269775390625,0.4927978515625,0.52252197265625,-0.00390625,0.0234375,-0.0234375,-0.001953125,-0.01953125,0.001953125,20260907_125957
2026-09-07 13:00:47.252234,0.529052734375,0.45147705078125,0.49285888671875,0.5228271484375,0.1328125,0.03125,0.03125,-0.005859375,-0.0234375,0.00390625,20260907_125957
2026-09-07 13:00:47.355397,0.5299072265625,0.448974609375,0.49383544921875,0.52313232421875,0.203125,0.0234375,0.08203125,-0.00390625,-0.03125,-0.00390625,20260907_125957
2026-09-07 13:00:47.451792,0.53118896484375,0.44598388671875,0.49493408203125,0.5234375,0.19140625,-0.015625,0.12890625,0.0,-0.03515625,-0.001953125,20260907_125957
2026-09-07 13:00:47.553972,0.5325927734375,0.442626953125,0.4959716796875,0.52386474609375,0.15234375,-0.0390625,0.08984375,-0.005859375,-0.044921875,0.0,20260907_125957
2026-09-07 13:00:47.653845,0.53424072265625,0.4388427734375,0.4969482421875,0.52447509765625,0.04296875,-0.03125,0.12109375,-0.001953125,-0.0546875,-0.00390625,20260907_125957
2026-09-07 13:00:47.753803,0.53582763671875,0.43505859375,0.49749755859375,0.5255126953125,-0.0546875,-0.0234375,0.12109375,-0.005859375,-0.064453125,-0.001953125,20260907_125957
2026-09-07 13:00:47.854403,0.53717041015625,0.4312744140625,0.49755859375,0.52716064453125,0.05078125,0.0234375,-0.02734375,-0.01171875,-0.072265625,-0.005859375,20260907_125957
2026-09-07 13:00:47.955402,0.5384521484375,0.4273681640625,0.49725341796875,0.529296875,0.10546875,-0.08203125,-0.08203125,-0.01953125,-0.076171875,-0.01171875,20260907_125957
2026-09-07 13:00:48.053848,0.5396728515625,0.42333984375,0.4967041015625,0.53179931640625,0.03515625,-0.03125,0.05859375,-0.029296875,-0.083984375,-0.017578125,20260907_125957
2026-09-07 13:00:48.155813,0.5411376953125,0.41900634765625,0.495849609375,0.5345458984375,0.05859375,0.015625,0.31640625,-0.021484375,-0.09765625,-0.0234375,20260907_125957
2026-09-07 13:00:48.255370,0.5423583984375,0.4141845703125,0.4947509765625,0.5380859375,-0.1484375,-0.05859375,0.421875,-0.017578125,-0.111328125,-0.0234375,20260907_125957
2026-09-07 13:00:48.356190,0.54315185546875,0.40899658203125,0.49310302734375,0.542724609375,-0.140625,0.046875,0.41796875,-0.017578125,-0.1328125,-0.025390625,20260907_125957
2026-09-07 13:00:48.450812,0.54345703125,0.4034423828125,0.49102783203125,0.5484619140625,-0.09375,0.046875,0.01171875,-0.01953125,-0.142578125,-0.025390625,20260907_125957
2026-09-07 13:00:48.551139,0.5439453125,0.39776611328125,0.48822021484375,0.55462646484375,-0.046875,0.0546875,-0.03515625,-0.029296875,-0.150390625,-0.0234375,20260907_125957
2026-09-07 13:00:48.652335,0.54486083984375,0.3919677734375,0.48468017578125,0.56085205078125,-0.09375,0.09375,0.21484375,-0.033203125,-0.166015625,-0.021484375,20260907_125957
2026-09-07 13:00:48.752213,0.53851318359375,0.3861083984375,0.48004150390625,0.56744384765625,-0.15234375,0.0,0.34375,-0.021484375,-0.185546875,-0.029296875,20260907_125957
2026-09-07 13:00:48.851908,0.54998779296875,0.38018798828125,0.47406005859375,0.57293701171875,-0.26171875,-0.15234375,0.58984375,-0.021484375,-0.20703125,-0.03125,20260907_125957
2026-09-07 13:00:48.953262,0.55426025390625,0.3739013671875,0.467041015625,0.57867431640625,-0.2890625,-0.265625,0.64453125,-0.021484375,-0.234375,-0.03125,20260907_125957
2026-09-07 13:00:49.053277,0.559326171875,0.3670654296875,0.45941162109375,0.58428955078125,-0.3984375,-0.23046875,0.4140625,-0.26171875,-0.25,-0.01953125,20260907_125957
2026-09-07 13:00:49.152970,0.55230712890625,0.35784912109375,0.4539794921875,0.60064697265625,-0.1796875,0.0859375,-0.265625,0.0078125,-0.267578125,-0.041015625,20260907_125957
2026-09-07 13:00:49.252949,0.552490234375,0.348876953125,0.44622802734375,0.61151123046875,-0.0546875,0.1640625,-0.1875,-0.017578125,-0.29296875,-0.03125,20260907_125957
2026-09-07 13:00:49.353658,0.554931640625,0.3394775390625,0.437744140625,0.62060546875,-0.22265625,-0.265625,0.17578125,-0.03125,-0.306640625,-0.009765625,20260907_125957
2026-09-07 13:00:49.452570,0.56036376953125,0.3306884765625,0.42755126953125,0.6275634765625,-0.4921875,0.125,0.3359375,0.017578125,-0.32421875,-0.033203125,20260907_125957
2026-09-07 13:00:49.551877,0.5672607421875,0.32171630859375,0.4171142578125,0.633056640625,0.25,0.1796875,-0.1015625,0.029296875,-0.326171875,-0.03515625,20260907_125957
2026-09-07 13:00:49.648914,0.5733642578125,0.3116455078125,0.40692138671875,0.63922119140625,-0.35546875,0.140625,-0.29296875,-0.009765625,-0.33203125,-0.017578125,20260907_125957
2026-09-07 13:00:49.753054,0.578857421875,0.300537109375,0.39605712890625,0.64630126953125,-0.04296875,-0.2265625,0.00390625,-0.025390625,-0.359375,-0.029296875,20260907_125957
2026-09-07 13:00:49.852069,0.58221435546875,0.2890625,0.385009765625,0.6551513671875,-0.125,-0.05859375,-0.35546875,-0.091796875,-0.357421875,-0.05859375,20260907_125957
2026-09-07 13:00:49.951758,0.58642578125,0.27764892578125,0.3734130859375,0.6629638671875,-0.5234375,0.33203125,0.66796875,-0.05859375,-0.36328125,-0.052734375,20260907_125957
2026-09-07 13:00:50.052866,0.58905029296875,0.265380859375,0.362060546875,0.67193603515625,-0.77734375,0.578125,0.80859375,-0.021484375,-0.373046875,-0.044921875,20260907_125957
2026-09-07 13:00:50.152841,0.5927734375,0.25262451171875,0.34991455078125,0.67999267578125,-0.76171875,-0.04296875,0.578125,-0.0078125,-0.390625,-0.0390625,20260907_125957
2026-09-07 13:00:50.252686,0.5906982421875,0.2425537109375,0.33465576171875,0.6929931640625,0.25390625,-0.875,-0.0546875,-0.009765625,-0.41015625,-0.046875,20260907_125957
2026-09-07 13:00:50.353525,0.59637451171875,0.22918701171875,0.3216552734375,0.69879150390625,-0.28515625,0.12890625,-0.8203125,0.005859375,-0.408203125,-0.037109375,20260907_125957
2026-09-07 13:00:50.452399,0.600830078125,0.21533203125,0.30865478515625,0.70526123046875,-0.140625,0.30859375,-0.390625,-0.076171875,-0.40625,-0.0078125,20260907_125957
2026-09-07 13:00:50.551127,0.60418701171875,0.20220947265625,0.29443359375,0.71234130859375,0.2421875,-0.46484375,-1.44140625,-0.02734375,-0.412109375,-0.0703125,20260907_125957
2026-09-07 13:00:50.652809,0.606201171875,0.189453125,0.2796630859375,0.72003173828125,-0.3203125,0.37109375,-0.22265625,-0.09765625,-0.404296875,-0.08203125,20260907_125957
2026-09-07 13:00:50.753036,0.60772705078125,0.17572021484375,0.26531982421875,0.72760009765625,-1.375,0.046875,0.7109375,-0.1015625,-0.408203125,-0.064453125,20260907_125957
2026-09-07 13:00:50.853325,0.6116943359375,0.16107177734375,0.25042724609375,0.73291015625,-1.5,-0.12890625,0.5390625,-0.017578125,-0.439453125,-0.05859375,20260907_125957
2026-09-07 13:00:50.953395,0.6170654296875,0.14599609375,0.23516845703125,0.73663330078125,-1.2578125,-0.00390625,0.37890625,0.009765625,-0.44921875,-0.029296875,20260907_125957
2026-09-07 13:00:51.061422,0.6217041015625,0.1309814453125,0.21990966796875,0.74029541015625,-0.8125,-0.1484375,-0.0546875,0.009765625,-0.4453125,-0.037109375,20260907_125957
2026-09-07 13:00:51.152051,0.62615966796875,0.1163330078125,0.20465087890625,0.7432861328125,-0.515625,-0.41796875,-0.5234375,0.009765625,-0.435546875,-0.025390625,20260907_125957
2026-09-07 13:00:51.251086,0.628662109375,0.1090087890625,0.19696044921875,0.744384765625,-0.515625,0.15625,-0.23046875,0.041015625,-0.435546875,-0.046875,20260907_125957
2026-09-07 13:00:51.351733,0.62353515625,0.0970458984375,0.18023681640625,0.7545166015625,0.2421875,0.08203125,-0.203125,0.017578125,-0.427734375,-0.03515625,20260907_125957
2026-09-07 13:00:51.449979,0.61981201171875,0.093017578125,0.1572265625,0.76318359375,0.25390625,-0.1328125,-0.640625,-0.025390625,-0.408203125,-0.03515625,20260907_125957
2026-09-07 13:00:51.550338,0.622802734375,0.0809326171875,0.142578125,0.7650146484375,0.703125,0.375,-1.08984375,0.0234375,-0.369140625,-0.0546875,20260907_125957
2026-09-07 13:00:51.649906,0.6253662109375,0.06982421875,0.129638671875,0.76629638671875,0.55078125,0.45703125,-1.01171875,0.009765625,-0.328125,-0.060546875,20260907_125957
2026-09-07 13:00:51.751132,0.627197265625,0.05987548828125,0.117919921875,0.767578125,0.51953125,0.2265625,-0.8125,-0.01953125,-0.298828125,-0.037109375,20260907_125957
2026-09-07 13:00:51.849650,0.6292724609375,0.0506591796875,0.10711669921875,0.76812744140625,0.07421875,0.14453125,-0.2734375,0.013671875,-0.271484375,-0.029296875,20260907_125957
2026-09-07 13:00:51.950547,0.64312744140625,0.04217529296875,0.09710693359375,0.75836181640625,-0.12890625,0.078125,-0.58203125,-0.029296875,-0.240234375,-0.021484375,20260907_125957
2026-09-07 13:00:52.050225,0.651123046875,0.034912109375,0.08795166015625,0.7530517578125,0.6171875,-0.19921875,0.48046875,0.0234375,-0.21484375,-0.033203125,20260907_125957
2026-09-07 13:00:52.151007,0.6573486328125,0.029296875,0.08001708984375,0.748779296875,-0.34765625,0.16796875,0.46484375,0.005859375,-0.17578125,-0.005859375,20260907_125957
2026-09-07 13:00:52.250472,0.66143798828125,0.0233154296875,0.0738525390625,0.74603271484375,0.01171875,-0.08203125,-0.01953125,0.03515625,-0.162109375,-0.01171875,20260907_125957
2026-09-07 13:00:52.350276,0.66265869140625,0.01763916015625,0.068359375,0.74554443359375,0.5703125,0.18359375,-0.33203125,0.01953125,-0.15625,-0.001953125,20260907_125957
2026-09-07 13:00:52.446578,0.66302490234375,0.0133056640625,0.063232421875,0.73797607421875,0.1875,0.30859375,-0.27734375,-0.015625,-0.119140625,-0.017578125,20260907_125957
2026-09-07 13:00:52.550908,0.6627197265625,0.0098876953125,0.0587158203125,0.74652099609375,0.1484375,-0.10546875,0.21875,-0.005859375,-0.10546875,-0.029296875,20260907_125957
2026-09-07 13:00:52.650534,0.66583251953125,0.00616455078125,0.0548095703125,0.7440185546875,-0.04296875,0.19921875,0.06640625,-0.005859375,-0.099609375,-0.015625,20260907_125957
2026-09-07 13:00:52.749976,0.66766357421875,0.00244140625,0.05181884765625,0.74267578125,0.02734375,-0.10546875,0.12109375,-0.001953125,-0.087890625,0.005859375,20260907_125957
2026-09-07 13:00:52.857637,0.669189453125,-0.00048828125,0.04913330078125,0.741455078125,0.27734375,-0.11328125,-0.125,0.037109375,-0.07421875,-0.025390625,20260907_125957
2026-09-07 13:00:52.949237,0.6705322265625,-0.003662109375,0.04693603515625,0.74041748046875,0.12890625,-0.17578125,0.05859375,0.03125,-0.080078125,0.021484375,20260907_125957
2026-09-07 13:00:53.057268,0.67169189453125,-0.0074462890625,0.04541015625,0.7393798828125,0.3515625,-0.296875,-0.23046875,0.013671875,-0.068359375,0.015625,20260907_125957
2026-09-07 13:00:53.156409,0.67401123046875,-0.011962890625,0.04620361328125,0.7371826171875,0.36328125,0.0703125,-0.2890625,0.025390625,-0.0234375,0.005859375,20260907_125957
2026-09-07 13:00:53.256269,0.67718505859375,-0.01568603515625,0.0478515625,0.73406982421875,0.046875,0.24609375,-0.29296875,0.001953125,-0.0234375,0.01953125,20260907_125957
2026-09-07 13:00:53.356759,0.68017578125,-0.0191650390625,0.04931640625,0.73114013671875,0.0546875,0.27734375,-0.078125,-0.01171875,-0.0234375,0.0,20260907_125957
2026-09-07 13:00:53.456415,0.68255615234375,-0.02197265625,0.050048828125,0.72882080078125,0.20703125,-0.13671875,0.0234375,-0.025390625,-0.0078125,-0.0078125,20260907_125957
2026-09-07 13:00:53.557627,0.684326171875,-0.02374267578125,0.0509033203125,0.72698974609375,0.15234375,0.26171875,0.23046875,-0.017578125,0.005859375,-0.017578125,20260907_125957
2026-09-07 13:00:53.659079,0.68597412109375,-0.02496337890625,0.05218505859375,0.725341796875,-0.3359375,-0.10546875,0.48828125,0.02734375,0.00390625,0.0,20260907_125957
2026-09-07 13:00:53.759088,0.687255859375,-0.02593994140625,0.05322265625,0.7239990234375,0.109375,0.015625,0.1875,0.033203125,-0.0078125,0.001953125,20260907_125957
2026-09-07 13:00:53.858747,0.687744140625,-0.0267333984375,0.05352783203125,0.7235107421875,0.23046875,0.3671875,-0.171875,0.017578125,-0.005859375,0.00390625,20260907_125957
2026-09-07 13:00:53.960018,0.68780517578125,-0.02716064453125,0.05377197265625,0.723388671875,0.3359375,0.015625,-0.125,0.03515625,-0.00390625,0.001953125,20260907_125957
2026-09-07 13:00:54.059960,0.68792724609375,-0.02764892578125,0.05426025390625,0.72320556640625,0.171875,-0.1171875,-0.1875,-0.02734375,-0.005859375,0.017578125,20260907_125957
2026-09-07 13:00:54.164381,0.687255859375,-0.0296630859375,0.05596923828125,0.72369384765625,0.1640625,0.078125,0.37890625,-0.00390625,-0.0078125,0.013671875,20260907_125957
2026-09-07 13:00:54.260567,0.687255859375,-0.03240966796875,0.05810546875,0.723388671875,0.109375,0.18359375,-0.10546875,-0.017578125,0.0,0.005859375,20260907_125957
2026-09-07 13:00:54.361013,0.68621826171875,-0.03466796875,0.06036376953125,0.72406005859375,0.03125,-0.23046875,0.05078125,-0.009765625,0.001953125,0.005859375,20260907_125957
2026-09-07 13:00:54.459475,0.685302734375,-0.0364990234375,0.0623779296875,0.72467041015625,0.16015625,-0.21484375,-0.05859375,0.009765625,-0.00390625,-0.013671875,20260907_125957
2026-09-07 13:00:54.560624,0.6845703125,-0.0379638671875,0.0635986328125,0.72515869140625,-0.0390625,0.09375,0.05859375,0.00390625,-0.0078125,-0.009765625,20260907_125957
2026-09-07 13:00:54.660659,0.68389892578125,-0.03839111328125,0.06353759765625,0.72576904296875,-0.046875,0.015625,0.1171875,0.0078125,0.0,0.009765625,20260907_125957
2026-09-07 13:00:54.761156,0.6837158203125,-0.0390625,0.06414794921875,0.72589111328125,0.12890625,-0.17578125,0.39453125,-0.005859375,0.00390625,0.01953125,20260907_125957
2026-09-07 13:00:54.859978,0.68402099609375,-0.03961181640625,0.06494140625,0.7254638671875,-0.04296875,0.0546875,-0.2578125,0.0234375,-0.013671875,0.0,20260907_125957
2026-09-07 13:00:54.961784,0.68359375,-0.0406494140625,0.0654296875,0.72576904296875,0.0703125,-0.046875,-0.3125,0.013671875,-0.009765625,-0.0078125,20260907_125957
2026-09-07 13:00:55.085942,0.6832275390625,-0.0413818359375,0.0654296875,0.72607421875,-0.34375,0.18359375,-0.10546875,-0.017578125,0.00390625,-0.001953125,20260907_125957
2026-09-07 13:00:55.182409,0.6832275390625,-0.04107666015625,0.0653076171875,0.72613525390625,-0.37890625,-0.19921875,0.04296875,0.01171875,-0.005859375,-0.01171875,20260907_125957
2026-09-07 13:00:55.260410,0.68389892578125,-0.03997802734375,0.06390380859375,0.7257080078125,-0.046875,-0.15234375,-0.09375,0.005859375,-0.0078125,-0.01171875,20260907_125957
2026-09-07 13:00:55.371218,0.684326171875,-0.03826904296875,0.06219482421875,0.72552490234375,-0.17578125,0.0625,-0.02734375,0.01953125,0.00390625,-0.02734375,20260907_125957
2026-09-07 13:00:55.462352,0.68536376953125,-0.033935546875,0.05816650390625,0.72503662109375,-0.265625,0.29296875,-0.078125,0.0,0.001953125,-0.017578125,20260907_125957
2026-09-07 13:00:55.571032,0.68572998046875,-0.03271484375,0.056884765625,0.724853515625,-0.30078125,-0.0078125,0.14453125,0.01171875,-0.005859375,-0.0078125,20260907_125957
2026-09-07 13:00:55.669671,0.68707275390625,-0.0286865234375,0.05255126953125,0.72412109375,-0.07421875,-0.328125,-0.0078125,0.00390625,-0.00390625,-0.001953125,20260907_125957
2026-09-07 13:00:55.760459,0.68780517578125,-0.02581787109375,0.0496826171875,0.7237548828125,-0.08984375,-0.15234375,-0.15625,-0.013671875,-0.005859375,0.017578125,20260907_125957
2026-09-07 13:00:55.871615,0.6878662109375,-0.025390625,0.0491943359375,0.72369384765625,0.24609375,0.14453125,-0.18359375,0.00390625,-0.001953125,-0.00390625,20260907_125957
2026-09-07 13:00:55.959881,0.6876220703125,-0.02581787109375,0.049072265625,0.72393798828125,0.28515625,-0.12109375,-0.1171875,0.013671875,-0.001953125,-0.005859375,20260907_125957
2026-09-07 13:00:56.061055,0.6875,-0.02569580078125,0.04888916015625,0.72412109375,0.1328125,0.23046875,0.11328125,0.01171875,0.00390625,-0.0078125,20260907_125957
2026-09-07 13:00:56.160915,0.68798828125,-0.02490234375,0.0482177734375,0.72369384765625,-0.23828125,-0.20703125,0.3046875,0.01171875,-0.005859375,0.0,20260907_125957
2026-09-07 13:00:56.260172,0.68890380859375,-0.02392578125,0.046875,0.72296142578125,0.015625,0.10546875,-0.0625,0.025390625,-0.005859375,0.0,20260907_125957
2026-09-07 13:00:56.360609,0.6895751953125,-0.0235595703125,0.046142578125,0.72235107421875,-0.0625,0.14453125,-0.20703125,0.01953125,-0.009765625,0.0,20260907_125957
2026-09-07 13:00:56.460849,0.689697265625,-0.02349853515625,0.04559326171875,0.7222900390625,0.3203125,-0.015625,-0.0078125,0.0,-0.00390625,-0.0078125,20260907_125957
2026-09-07 13:00:56.560584,0.69000244140625,-0.02313232421875,0.04486083984375,0.7220458984375,-0.30859375,-0.1484375,0.12890625,-0.005859375,-0.001953125,0.013671875,20260907_125957
2026-09-07 13:00:56.659830,0.69000244140625,-0.02313232421875,0.04473876953125,0.7220458984375,0.046875,0.02734375,-0.12890625,0.015625,0.0,-0.01953125,20260907_125957
2026-09-07 13:00:56.760167,0.69000244140625,-0.02154541015625,0.043212890625,0.72222900390625,-0.05078125,-0.390625,-0.21484375,-0.052734375,0.0,0.005859375,20260907_125957
2026-09-07 13:00:56.867686,0.69049072265625,-0.01934814453125,0.041015625,0.721923828125,-0.38671875,-0.12109375,-0.0390625,-0.025390625,0.001953125,-0.01171875,20260907_125957
2026-09-07 13:00:56.959216,0.69122314453125,-0.01580810546875,0.037841796875,0.721435546875,-0.44140625,0.33984375,0.0703125,-0.0078125,0.001953125,-0.0234375,20260907_125957
2026-09-07 13:00:57.067086,0.69189453125,-0.01446533203125,0.0364990234375,0.720947265625,-0.4765625,0.359375,0.23046875,0.005859375,-0.001953125,-0.017578125,20260907_125957
2026-09-07 13:00:57.165796,0.69195556640625,-0.01324462890625,0.03485107421875,0.72100830078125,-0.3046875,-0.0078125,0.03125,0.01171875,-0.00390625,0.0,20260907_125957
2026-09-07 13:00:57.266501,0.6912841796875,-0.0137939453125,0.03497314453125,0.72161865234375,-0.45703125,0.12890625,-0.40625,-0.005859375,-0.005859375,0.001953125,20260907_125957
2026-09-07 13:00:57.367120,0.69140625,-0.01373291015625,0.03472900390625,0.72149658203125,-0.0234375,-0.90625,0.11328125,-0.009765625,0.00390625,0.029296875,20260907_125957
2026-09-07 13:00:57.466282,0.69232177734375,-0.01336669921875,0.03448486328125,0.72064208984375,-0.07421875,0.0,0.4921875,0.013671875,-0.005859375,0.013671875,20260907_125957
2026-09-07 13:00:57.567845,0.69293212890625,-0.01287841796875,0.03375244140625,0.7200927734375,-0.328125,0.22265625,0.078125,-0.0234375,-0.005859375,-0.00390625,20260907_125957
2026-09-07 13:00:57.667431,0.69287109375,-0.01263427734375,0.0330810546875,0.72021484375,-0.3359375,0.06640625,-0.52734375,-0.017578125,-0.001953125,0.013671875,20260907_125957
2026-09-07 13:00:57.768338,0.69287109375,-0.00897216796875,0.029541015625,0.72039794921875,-0.73828125,0.06640625,-0.14453125,-0.029296875,0.0,0.033203125,20260907_125957
2026-09-07 13:00:57.868010,0.69390869140625,-0.00390625,0.02471923828125,0.7196044921875,0.15625,-0.234375,0.2109375,0.03125,-0.00390625,-0.0078125,20260907_125957
2026-09-07 13:00:57.975529,0.69580078125,0.0020751953125,0.018798828125,0.71795654296875,0.140625,-0.26953125,0.0859375,0.001953125,-0.00390625,0.0,20260907_125957
2026-09-07 13:00:58.065524,0.69683837890625,0.00531005859375,0.0155029296875,0.717041015625,0.17578125,-0.015625,-0.328125,0.017578125,0.001953125,-0.01953125,20260907_125957
2026-09-07 13:00:58.176189,0.69683837890625,0.0064697265625,0.0145263671875,0.717041015625,0.18359375,-0.03125,-0.04296875,-0.01171875,0.005859375,-0.00390625,20260907_125957
2026-09-07 13:00:58.266517,0.6971435546875,0.00732421875,0.01409912109375,0.716796875,0.06640625,0.25390625,0.05859375,0.001953125,0.005859375,-0.021484375,20260907_125957
2026-09-07 13:00:58.376404,0.69720458984375,0.0081787109375,0.013671875,0.71673583984375,-0.0859375,0.11328125,0.0859375,-0.02734375,0.001953125,0.013671875,20260907_125957
2026-09-07 13:00:58.465777,0.697021484375,0.00811767578125,0.0137939453125,0.71685791015625,0.0234375,-0.078125,-0.01171875,-0.005859375,0.005859375,-0.001953125,20260907_125957
2026-09-07 13:00:58.572983,0.69622802734375,0.00823974609375,0.01416015625,0.7176513671875,0.03125,-0.0859375,-0.2109375,-0.029296875,0.001953125,0.005859375,20260907_125957
2026-09-07 13:00:58.673973,0.6961669921875,0.0084228515625,0.0140380859375,0.71771240234375,0.08984375,-0.4296875,0.21875,0.015625,0.005859375,-0.01953125,20260907_125957
2026-09-07 13:00:58.774629,0.6964111328125,0.00897216796875,0.01373291015625,0.71746826171875,-0.1171875,-0.00390625,0.1796875,0.01171875,0.00390625,-0.013671875,20260907_125957
2026-09-07 13:00:58.873546,0.6966552734375,0.0096435546875,0.013427734375,0.71722412109375,0.05078125,0.15625,0.0,-0.009765625,0.0,0.013671875,20260907_125957
2026-09-07 13:00:58.974344,0.6966552734375,0.00897216796875,0.01397705078125,0.71722412109375,-0.94921875,1.49609375,0.015625,-0.0390625,-0.017578125,0.150390625,20260907_125957
2026-09-07 13:00:59.062735,0.6964111328125,0.00518798828125,0.01678466796875,0.7174072265625,-0.5234375,1.77734375,0.0078125,-0.064453125,-0.017578125,0.189453125,20260907_125957
2026-09-07 13:00:59.178061,0.695556640625,-0.0009765625,0.02215576171875,0.7181396484375,-0.546875,0.6875,0.22265625,-0.0234375,-0.005859375,0.068359375,20260907_125957
2026-09-07 13:00:59.273756,0.696044921875,-0.00018310546875,0.02105712890625,0.71771240234375,1.046875,-4.99609375,0.21484375,0.0390625,-0.013671875,-0.08984375,20260907_125957
2026-09-07 13:00:59.374810,0.6988525390625,0.00970458984375,0.01226806640625,0.715087890625,2.04296875,-4.9375,-0.234375,0.1484375,0.02734375,-0.3984375,20260907_125957
2026-09-07 13:00:59.474177,0.70098876953125,0.0223388671875,0.00201416015625,0.7127685546875,0.328125,2.16015625,-0.29296875,0.083984375,0.02734375,-0.302734375,20260907_125957
2026-09-07 13:00:59.573929,0.7015380859375,0.02911376953125,-0.0029296875,0.7120361328125,-2.83203125,4.18359375,-0.37109375,0.037109375,0.013671875,-0.10546875,20260907_125957
2026-09-07 13:00:59.675057,0.70001220703125,0.02496337890625,0.00067138671875,0.71368408203125,-2.57421875,3.62109375,0.1953125,-0.091796875,-0.0234375,0.232421875,20260907_125957
2026-09-07 13:00:59.775610,0.6983642578125,0.013916015625,0.0101318359375,0.71551513671875,-1.34375,0.42578125,0.27734375,-0.0625,-0.03125,0.35546875,20260907_125957
2026-09-07 13:00:59.876016,0.697509765625,0.0020751953125,0.019287109375,0.71630859375,0.765625,-2.484375,0.5859375,0.0234375,-0.044921875,0.205078125,20260907_125957
2026-09-07 13:00:59.975784,0.69775390625,0.00048828125,0.01995849609375,0.716064453125,2.32421875,-2.109375,-0.37109375,0.005859375,0.001953125,-0.076171875,20260907_125957
2026-09-07 13:01:00.075778,0.69805908203125,0.0072021484375,0.01434326171875,0.71588134765625,0.05859375,0.2421875,-0.1875,0.076171875,0.01953125,-0.23046875,20260907_125957
2026-09-07 13:01:00.175773,0.698974609375,0.01397705078125,0.00872802734375,0.7149658203125,-1.01171875,0.91796875,-0.1875,0.041015625,0.017578125,-0.16015625,20260907_125957
2026-09-07 13:01:00.275399,0.69830322265625,0.01605224609375,0.0074462890625,0.71563720703125,-1.1328125,1.76953125,-0.00390625,-0.01953125,0.009765625,0.0078125,20260907_125957
2026-09-07 13:01:00.375286,0.69775390625,0.01385498046875,0.00946044921875,0.71612548828125,0.0859375,0.3828125,0.27734375,-0.001953125,-0.0078125,0.076171875,20260907_125957
2026-09-07 13:01:00.473621,0.6971435546875,0.01123046875,0.0115966796875,0.71673583984375,0.0546875,-0.62109375,-0.234375,0.009765625,-0.005859375,0.03515625,20260907_125957
2026-09-07 13:01:00.576347,0.6971435546875,0.01025390625,0.01251220703125,0.71673583984375,0.6875,-1.0078125,0.0625,0.001953125,0.0,0.01171875,20260907_125957
2026-09-07 13:01:00.676437,0.69708251953125,0.010498046875,0.0123291015625,0.716796875,0.51953125,-0.203125,-0.00390625,-0.005859375,0.00390625,-0.017578125,20260907_125957
2026-09-07 13:01:00.776733,0.69720458984375,0.01116943359375,0.0118408203125,0.7166748046875,0.48828125,-0.125,0.0234375,0.01171875,0.001953125,-0.017578125,20260907_125957
2026-09-07 13:01:00.872395,0.6976318359375,0.010986328125,0.011962890625,0.71630859375,0.28125,0.11328125,-0.1953125,0.041015625,0.0,-0.021484375,20260907_125957
2026-09-07 13:01:00.973474,0.69775390625,0.0106201171875,0.01220703125,0.71612548828125,0.49609375,-0.26171875,0.03125,-0.00390625,-0.001953125,0.0078125,20260907_125957
2026-09-07 13:01:01.072481,0.69769287109375,0.0106201171875,0.01226806640625,0.7161865234375,0.10546875,0.05078125,-0.00390625,0.005859375,0.00390625,-0.0234375,20260907_125957
2026-09-07 13:01:01.173651,0.69696044921875,0.00701904296875,0.0159912109375,0.71685791015625,-0.23828125,0.14453125,-0.09765625,-0.001953125,0.001953125,-0.00390625,20260907_125957
2026-09-07 13:01:01.274047,0.69677734375,0.00592041015625,0.01715087890625,0.717041015625,-0.1875,0.01953125,0.0078125,-0.01171875,0.001953125,0.00390625,20260907_125957
2026-09-07 13:01:01.371456,0.697021484375,0.00555419921875,0.01763916015625,0.71685791015625,-0.109375,-0.171875,0.25390625,-0.00390625,0.001953125,0.009765625,20260907_125957
2026-09-07 13:01:01.474038,0.6973876953125,0.00531005859375,0.01776123046875,0.7164306640625,-0.4921875,-0.1328125,-0.08203125,0.0234375,0.0,0.0,20260907_125957
2026-09-07 13:01:01.574426,0.697509765625,0.005859375,0.0169677734375,0.71630859375,-0.078125,0.07421875,-0.12890625,-0.01171875,-0.005859375,0.01953125,20260907_125957
2026-09-07 13:01:01.674260,0.6978759765625,0.00732421875,0.015625,0.71600341796875,-0.0390625,-0.19140625,0.1640625,0.013671875,0.0,-0.009765625,20260907_125957
2026-09-07 13:01:01.773749,0.698486328125,0.009033203125,0.013916015625,0.71539306640625,-0.3359375,0.0078125,0.05859375,0.015625,0.0,-0.00390625,20260907_125957
2026-09-07 13:01:01.874604,0.6982421875,0.0096435546875,0.01324462890625,0.71563720703125,-0.1640625,0.5,-0.171875,0.029296875,0.0,-0.033203125,20260907_125957
2026-09-07 13:01:01.974091,0.69891357421875,0.010009765625,0.012939453125,0.71502685546875,-0.07421875,0.0390625,0.03515625,-0.009765625,0.0,0.0234375,20260907_125957
2026-09-07 13:01:02.075233,0.69927978515625,0.01031494140625,0.01263427734375,0.71466064453125,-0.44140625,-0.0859375,0.00390625,0.0234375,0.0,-0.017578125,20260907_125957
2026-09-07 13:01:02.173496,0.69964599609375,0.01092529296875,0.01202392578125,0.71435546875,-0.04296875,-0.34375,0.08984375,-0.015625,-0.001953125,0.013671875,20260907_125957
2026-09-07 13:01:02.268974,0.692138671875,0.014404296875,0.0086669921875,0.7139892578125,0.11328125,0.796875,-0.1875,-0.00390625,0.001953125,0.0078125,20260907_125957
2026-09-07 13:01:02.373436,0.70037841796875,0.018310546875,0.0047607421875,0.7135009765625,-0.16796875,-0.484375,-0.140625,0.0,-0.00390625,0.021484375,20260907_125957
2026-09-07 13:01:02.473590,0.70025634765625,0.01873779296875,0.0045166015625,0.713623046875,-0.01953125,0.0078125,0.01953125,-0.0390625,0.001953125,0.025390625,20260907_125957
2026-09-07 13:01:02.573837,0.70050048828125,0.01904296875,0.00445556640625,0.71337890625,-0.2734375,-0.22265625,-0.0859375,0.015625,0.005859375,-0.00390625,20260907_125957
2026-09-07 13:01:02.674285,0.700927734375,0.0194091796875,0.0042724609375,0.71295166015625,-0.2265625,-0.109375,-0.1171875,0.03515625,0.0,-0.015625,20260907_125957
2026-09-07 13:01:02.773348,0.7012939453125,0.02020263671875,0.00347900390625,0.71258544921875,-0.3203125,0.23828125,0.01953125,-0.0078125,0.0,0.005859375,20260907_125957
2026-09-07 13:01:02.873729,0.7015380859375,0.0224609375,0.00152587890625,0.7122802734375,-0.5625,0.3984375,-0.24609375,-0.01171875,0.001953125,0.0,20260907_125957
2026-09-07 13:01:02.974869,0.70208740234375,0.0284423828125,-0.00408935546875,0.71148681640625,-0.33203125,0.3984375,-0.1171875,0.00390625,0.005859375,-0.01171875,20260907_125957
2026-09-07 13:01:03.074170,0.702392578125,0.03131103515625,-0.0068359375,0.7110595703125,-0.21484375,-0.30859375,-0.03125,-0.005859375,0.001953125,0.009765625,20260907_125957
2026-09-07 13:01:03.174043,0.7025146484375,0.03363037109375,-0.0089111328125,0.7108154296875,-0.12109375,-0.0859375,0.08203125,0.00390625,0.001953125,0.0,20260907_125957
2026-09-07 13:01:03.275044,0.70269775390625,0.03582763671875,-0.01080322265625,0.71051025390625,-0.11328125,-0.078125,0.04296875,-0.01171875,0.00390625,0.015625,20260907_125957
2026-09-07 13:01:03.375096,0.7030029296875,0.0379638671875,-0.01300048828125,0.7100830078125,-0.203125,0.3359375,0.0078125,0.01171875,0.0,0.005859375,20260907_125957
2026-09-07 13:01:03.474265,0.70318603515625,0.04046630859375,-0.0155029296875,0.70965576171875,-0.109375,0.08984375,-0.125,-0.00390625,-0.001953125,0.0,20260907_125957
2026-09-07 13:01:03.575275,0.70343017578125,0.04296875,-0.01776123046875,0.709228515625,-0.078125,0.06640625,-0.24609375,-0.0078125,0.00390625,0.001953125,20260907_125957
2026-09-07 13:01:03.672119,0.7034912109375,0.044189453125,-0.018798828125,0.7091064453125,-0.03125,-0.1171875,-0.015625,-0.01953125,0.00390625,0.0078125,20260907_125957
2026-09-07 13:01:03.772331,0.7039794921875,0.046630859375,-0.02105712890625,0.7083740234375,-0.03125,-0.18359375,0.13671875,0.001953125,-0.001953125,0.0,20260907_125957
2026-09-07 13:01:03.871735,0.70458984375,0.04876708984375,-0.023193359375,0.70758056640625,-0.09375,0.21484375,0.0390625,0.001953125,0.00390625,-0.00390625,20260907_125957
2026-09-07 13:01:03.971406,0.70477294921875,0.050537109375,-0.0247802734375,0.70721435546875,-0.0703125,0.17578125,-0.21484375,0.0,0.00390625,0.00390625,20260907_125957
2026-09-07 13:01:04.073143,0.70465087890625,0.05133056640625,-0.02520751953125,0.707275390625,-0.09765625,0.21875,-0.0390625,-0.005859375,0.001953125,0.01171875,20260907_125957
2026-09-07 13:01:04.167925,0.70452880859375,0.0517578125,-0.02593994140625,0.707275390625,-0.03125,0.07421875,-0.015625,0.001953125,-0.001953125,0.005859375,20260907_125957
2026-09-07 13:01:04.271840,0.70440673828125,0.0521240234375,-0.02618408203125,0.7073974609375,-0.12109375,-0.203125,-0.0546875,-0.0078125,0.0,0.009765625,20260907_125957
2026-09-07 13:01:04.372106,0.70440673828125,0.05322265625,-0.02691650390625,0.707275390625,-0.05859375,-0.30859375,0.09375,-0.0078125,0.00390625,0.0234375,20260907_125957
2026-09-07 13:01:04.472161,0.70465087890625,0.05450439453125,-0.02777099609375,0.7069091796875,-0.16015625,0.01171875,-0.078125,-0.001953125,0.00390625,0.013671875,20260907_125957
2026-09-07 13:01:04.571332,0.70465087890625,0.05548095703125,-0.02880859375,0.706787109375,0.02734375,-0.0546875,0.0078125,0.013671875,-0.005859375,-0.00390625,20260907_125957
2026-09-07 13:01:04.671539,0.70458984375,0.05645751953125,-0.030029296875,0.70672607421875,0.24609375,0.17578125,-0.0546875,-0.013671875,-0.00390625,0.00390625,20260907_125957
2026-09-07 13:01:04.772133,0.70440673828125,0.05718994140625,-0.03045654296875,0.70684814453125,0.28515625,-0.24609375,0.25390625,0.0,0.0078125,-0.001953125,20260907_125957
2026-09-07 13:01:04.871933,0.70489501953125,0.0577392578125,-0.030517578125,0.706298828125,0.09765625,-0.0390625,0.0234375,0.01953125,0.00390625,-0.017578125,20260907_125957
2026-09-07 13:01:04.971604,0.70501708984375,0.05792236328125,-0.03070068359375,0.7061767578125,-0.13671875,-0.046875,-0.0234375,0.009765625,0.001953125,-0.01953125,20260907_125957
2026-09-07 13:01:05.071670,0.7054443359375,0.05816650390625,-0.03125,0.7056884765625,-0.3203125,-0.015625,-0.26953125,0.017578125,-0.00390625,-0.01953125,20260907_125957
2026-09-07 13:01:05.178978,0.7054443359375,0.0589599609375,-0.03192138671875,0.70556640625,-0.30078125,0.23828125,-0.05859375,0.009765625,0.00390625,-0.009765625,20260907_125957
2026-09-07 13:01:05.270472,0.705810546875,0.06097412109375,-0.0335693359375,0.70501708984375,-0.17578125,0.12109375,-0.01953125,0.005859375,0.001953125,-0.005859375,20260907_125957
2026-09-07 13:01:05.378486,0.7061767578125,0.0633544921875,-0.03582763671875,0.70428466796875,0.0078125,-0.203125,-0.02734375,-0.001953125,0.001953125,0.0078125,20260907_125957
2026-09-07 13:01:05.478419,0.7064208984375,0.06524658203125,-0.03778076171875,0.70379638671875,-0.0078125,0.01953125,0.0078125,0.013671875,-0.001953125,-0.005859375,20260907_125957
2026-09-07 13:01:05.568575,0.70654296875,0.06646728515625,-0.0390625,0.7034912109375,0.0,-0.0234375,0.046875,0.005859375,0.0,0.0078125,20260907_125957
2026-09-07 13:01:05.681944,0.706787109375,0.06707763671875,-0.03961181640625,0.703125,0.0859375,-0.5859375,-0.03515625,0.009765625,0.001953125,0.00390625,20260907_125957
2026-09-07 13:01:05.779426,0.70697021484375,0.06768798828125,-0.04034423828125,0.70281982421875,0.0,0.06640625,-0.06640625,0.0078125,-0.001953125,-0.0078125,20260907_125957
2026-09-07 13:01:05.879509,0.70709228515625,0.06829833984375,-0.04107666015625,0.70263671875,0.0,-0.0703125,-0.00390625,0.0,0.001953125,0.0078125,20260907_125957
2026-09-07 13:01:05.979267,0.70733642578125,0.06866455078125,-0.0413818359375,0.70233154296875,0.03125,-0.01171875,-0.06640625,0.015625,0.001953125,-0.00390625,20260907_125957
2026-09-07 13:01:06.080372,0.70733642578125,0.06903076171875,-0.04156494140625,0.7022705078125,0.12890625,-0.22265625,0.09375,-0.01171875,-0.001953125,0.005859375,20260907_125957
2026-09-07 13:01:06.181545,0.7076416015625,0.06927490234375,-0.04193115234375,0.70196533203125,0.0,0.08984375,-0.10546875,-0.001953125,-0.001953125,-0.005859375,20260907_125957
2026-09-07 13:01:06.281459,0.70758056640625,0.06951904296875,-0.042236328125,0.701904296875,-0.0234375,-0.01953125,0.1015625,-0.005859375,0.0,0.001953125,20260907_125957
2026-09-07 13:01:06.380999,0.70758056640625,0.06982421875,-0.0423583984375,0.701904296875,-0.05859375,-0.2109375,0.0546875,-0.001953125,0.005859375,-0.00390625,20260907_125957
2026-09-07 13:01:06.481445,0.7076416015625,-1.92974853515625,-0.04266357421875,0.7017822265625,-0.01171875,-0.0625,0.09375,-0.01171875,0.0,0.0078125,20260907_125957
2026-09-07 13:01:06.581544,0.70770263671875,0.07086181640625,-0.04327392578125,0.70159912109375,0.0703125,0.05859375,0.00390625,-0.001953125,-0.001953125,0.00390625,20260907_125957
2026-09-07 13:01:06.681904,0.70770263671875,0.0712890625,-0.0438232421875,0.7015380859375,0.140625,-0.03125,0.1171875,0.017578125,0.0,-0.005859375,20260907_125957
2026-09-07 13:01:06.781188,0.70782470703125,0.07171630859375,-0.04425048828125,0.70135498046875,0.140625,0.11328125,-0.11328125,-0.009765625,0.001953125,0.0078125,20260907_125957
2026-09-07 13:01:06.881871,0.7078857421875,0.07183837890625,-0.04437255859375,0.7012939453125,0.60546875,0.00390625,0.1484375,0.001953125,-0.001953125,0.01171875,20260907_125957
2026-09-07 13:01:06.981390,0.70794677734375,0.07135009765625,-0.04400634765625,0.7012939453125,0.5234375,-0.1015625,0.109375,-0.01171875,0.0,0.017578125,20260907_125957
2026-09-07 13:01:07.081777,0.7078857421875,0.070556640625,-0.043212890625,0.70147705078125,0.48046875,-0.0859375,0.109375,0.0078125,0.0,0.0,20260907_125957
2026-09-07 13:01:07.181365,0.70782470703125,0.070068359375,-0.042724609375,0.70159912109375,0.38671875,0.0,0.015625,-0.0078125,0.001953125,0.005859375,20260907_125957
2026-09-07 13:01:07.282125,0.7078857421875,0.0697021484375,-0.0423583984375,0.70159912109375,0.51953125,0.03515625,0.09375,0.005859375,0.0,-0.0078125,20260907_125957
2026-09-07 13:01:07.381134,0.7078857421875,0.06927490234375,-0.0419921875,0.70166015625,0.53515625,0.0078125,0.12890625,0.00390625,-0.001953125,0.00390625,20260907_125957
2026-09-07 13:01:07.480888,0.7080078125,0.06878662109375,-0.04156494140625,0.70159912109375,0.15625,0.04296875,-0.0078125,0.0078125,-0.001953125,0.0,20260907_125957
2026-09-07 13:01:07.581701,0.7064208984375,0.0557861328125,-0.02880859375,0.7049560546875,0.2578125,0.03515625,-0.0078125,0.005859375,-0.001953125,0.005859375,20260907_125957
2026-09-07 13:01:07.681818,0.70562744140625,0.0491943359375,-0.02239990234375,0.70648193359375,0.40625,-0.0546875,0.02734375,0.0,-0.001953125,0.009765625,20260907_125957
2026-09-07 13:01:07.781053,0.705078125,0.04425048828125,-0.01751708984375,0.70751953125,0.6953125,-0.09375,0.09765625,-0.0078125,0.0,0.017578125,20260907_125957
2026-09-07 13:01:07.881081,0.70489501953125,0.0428466796875,-0.01617431640625,0.70782470703125,0.7734375,-0.09375,0.08984375,0.0,0.0,0.005859375,20260907_125957
2026-09-07 13:01:07.981874,0.70477294921875,0.04254150390625,-0.01580810546875,0.70794677734375,0.7421875,0.05859375,0.08984375,-0.00390625,0.0,0.0078125,20260907_125957
2026-09-07 13:01:08.082006,0.70477294921875,0.04229736328125,-0.015625,0.7080078125,-0.015625,0.12109375,-0.00390625,0.0,0.0,0.001953125,20260907_125957
2026-09-07 13:01:08.181630,0.7037353515625,0.030029296875,-0.00335693359375,0.7098388671875,0.0234375,-0.0390625,0.03515625,-0.00390625,0.001953125,0.005859375,20260907_125957
2026-09-07 13:01:08.282157,0.70281982421875,0.02020263671875,0.00653076171875,0.7110595703125,0.23828125,0.046875,0.06640625,0.015625,0.0,-0.009765625,20260907_125957
2026-09-07 13:01:08.382274,0.70220947265625,0.01422119140625,0.01239013671875,0.711669921875,0.5703125,-0.0390625,0.09375,0.0,-0.001953125,0.01171875,20260907_125957
2026-09-07 13:01:08.482398,0.701904296875,0.00921630859375,0.01727294921875,0.7120361328125,0.5078125,-0.0390625,-0.02734375,0.013671875,0.001953125,0.005859375,20260907_125957
2026-09-07 13:01:08.589202,0.70147705078125,0.004150390625,0.02239990234375,0.71234130859375,0.49609375,-0.0703125,0.01171875,0.0078125,0.005859375,-0.005859375,20260907_125957
2026-09-07 13:01:08.676778,0.70074462890625,-0.00390625,0.03094482421875,0.71270751953125,0.24609375,-0.0546875,-0.02734375,0.005859375,0.005859375,-0.00390625,20260907_125957
2026-09-07 13:01:08.790509,0.70037841796875,-0.00665283203125,0.0338134765625,0.71295166015625,0.20703125,0.0390625,0.04296875,-0.00390625,0.009765625,0.00390625,20260907_125957
2026-09-07 13:01:08.889041,0.6993408203125,-0.01434326171875,0.04217529296875,0.71337890625,0.12109375,-0.0390625,0.1328125,-0.005859375,0.01171875,-0.0078125,20260907_125957
2026-09-07 13:01:08.989676,0.698486328125,-0.018798828125,0.0472412109375,0.71380615234375,0.1328125,-0.0234375,0.125,-0.005859375,0.0078125,-0.005859375,20260907_125957
2026-09-07 13:01:09.078711,0.69757080078125,-0.0228271484375,0.0516357421875,0.71429443359375,0.140625,0.0078125,0.1328125,0.009765625,0.001953125,0.0,20260907_125957
2026-09-07 13:01:09.190883,0.6971435546875,-0.02471923828125,0.05364990234375,0.7144775390625,0.125,-0.015625,0.0078125,-0.001953125,0.005859375,0.013671875,20260907_125957
2026-09-07 13:01:09.278659,0.69586181640625,-0.02978515625,0.05938720703125,0.715087890625,0.16796875,0.015625,0.0078125,0.017578125,0.005859375,0.001953125,20260907_125957
2026-09-07 13:01:09.379903,0.695556640625,-0.03131103515625,0.0611572265625,0.7152099609375,0.10546875,-0.03125,-0.0625,0.005859375,0.01171875,0.00390625,20260907_125957
2026-09-07 13:01:09.479912,0.69512939453125,-0.0340576171875,0.064697265625,0.71514892578125,-0.0234375,0.16796875,-0.14453125,-0.001953125,0.01171875,0.00390625,20260907_125957
2026-09-07 13:01:09.579151,0.6944580078125,-0.03668212890625,0.06787109375,0.71539306640625,0.2421875,-0.26171875,0.0390625,-0.017578125,0.009765625,0.01171875,20260907_125957
2026-09-07 13:01:09.679233,0.69415283203125,-0.03863525390625,0.07049560546875,0.71533203125,0.28125,-0.22265625,0.015625,-0.021484375,0.009765625,0.00390625,20260907_125957
2026-09-07 13:01:09.780252,0.693603515625,-0.04071044921875,0.0731201171875,0.71551513671875,0.01953125,0.26953125,0.28515625,0.00390625,0.00390625,0.001953125,20260907_125957
2026-09-07 13:01:09.879614,0.69281005859375,-0.043212890625,0.075927734375,0.7158203125,0.078125,0.0703125,0.16796875,-0.001953125,0.001953125,0.017578125,20260907_125957
2026-09-07 13:01:09.979189,0.6920166015625,-0.04547119140625,0.07867431640625,0.7161865234375,-0.09765625,0.22265625,-0.22265625,-0.005859375,0.009765625,0.015625,20260907_125957
2026-09-07 13:01:10.079429,0.69097900390625,-0.04718017578125,0.0811767578125,0.71673583984375,-0.02734375,-0.03125,-0.0859375,-0.017578125,0.009765625,0.013671875,20260907_125957
2026-09-07 13:01:10.186537,0.69061279296875,-0.04766845703125,0.0823974609375,0.7169189453125,-0.234375,0.22265625,-0.22265625,-0.025390625,0.0078125,-0.00390625,20260907_125957
2026-09-07 13:01:10.278347,0.6898193359375,-0.04791259765625,0.08306884765625,0.71759033203125,-0.1796875,-0.12890625,-0.08984375,-0.025390625,0.0078125,0.0,20260907_125957
2026-09-07 13:01:10.385918,0.689697265625,-0.0477294921875,0.0831298828125,0.71771240234375,-0.1875,-0.17578125,0.109375,-0.01171875,0.005859375,-0.001953125,20260907_125957
2026-09-07 13:01:10.478547,0.689697265625,-0.04705810546875,0.08282470703125,0.71783447265625,-0.15625,0.0234375,0.25390625,0.005859375,0.001953125,-0.005859375,20260907_125957
2026-09-07 13:01:10.576170,0.6898193359375,-0.04669189453125,0.08258056640625,0.71771240234375,-0.078125,0.140625,0.15234375,0.013671875,-0.00390625,0.001953125,20260907_125957
2026-09-07 13:01:10.686525,0.69036865234375,-0.04595947265625,0.08184814453125,0.71734619140625,0.30859375,0.27734375,-0.03125,-0.01953125,0.0,0.02734375,20260907_125957
2026-09-07 13:01:10.785229,0.69049072265625,-0.04522705078125,0.081298828125,0.71734619140625,0.10546875,0.125,-0.140625,0.0234375,0.001953125,-0.009765625,20260907_125957
