timestamp,quat_i,quat_j,quat_k,quat_real,accel_x,accel_y,accel_z,gyro_x,gyro_y,gyro_z
2026-09-03T16:18:23.117516,0.5,0.5,0.5,0.5,-0.0390625,9.4453125,0.11328125,0.0,0.0,0.0
2026-09-03T16:18:23.266876,0.5,0.5,0.49993896484375,0.5,-0.078125,9.25,0.11328125,-0.001953125,0.001953125,0.0
2026-09-03T16:18:23.345864,0.50006103515625,0.5,0.49993896484375,0.5,-0.0390625,9.140625,0.10546875,0.0,0.0,0.0
2026-09-03T16:18:23.443576,0.4996337890625,0.49981689453125,0.5001220703125,0.50042724609375,-0.03125,8.8984375,0.0703125,-0.00390625,-0.001953125,0.0
2026-09-03T16:18:23.545482,0.499267578125,0.49969482421875,0.50018310546875,0.5008544921875,-0.015625,-0.0234375,0.01953125,0.001953125,0.0,0.001953125
2026-09-03T16:18:23.643148,0.49884033203125,0.4996337890625,0.500244140625,0.501220703125,-0.015625,-0.0234375,-0.015625,0.001953125,0.0,0.0
2026-09-03T16:18:23.745829,0.49847412109375,0.49957275390625,0.50030517578125,0.5015869140625,-0.015625,-0.0234375,-0.015625,0.0,-0.001953125,0.00390625
2026-09-03T16:18:23.844986,0.4981689453125,0.49957275390625,0.5003662109375,0.50189208984375,0.03125,0.0234375,0.01953125,0.001953125,0.0,-0.001953125
2026-09-03T16:18:23.946204,0.49786376953125,0.49951171875,0.5003662109375,0.502197265625,-0.0078125,0.0234375,-0.0234375,0.0,-0.001953125,0.0
2026-09-03T16:18:24.043997,0.49761962890625,0.49945068359375,0.50042724609375,0.50250244140625,-0.0078125,-0.015625,0.01171875,0.0,-0.001953125,0.001953125
2026-09-03T16:18:24.142303,0.49737548828125,0.4993896484375,0.50048828125,0.50274658203125,0.0234375,-0.015625,-0.0234375,0.0,-0.001953125,0.001953125
2026-09-03T16:18:24.244521,0.49725341796875,0.49932861328125,0.50048828125,0.5029296875,0.0234375,-0.015625,0.01171875,0.0,0.001953125,-0.001953125
2026-09-03T16:18:24.345894,0.49700927734375,0.499267578125,0.50054931640625,0.50311279296875,0.0234375,0.0234375,-0.03125,-0.001953125,-0.001953125,0.0
2026-09-03T16:18:24.444780,0.49688720703125,0.4991455078125,0.50067138671875,0.5032958984375,-0.0234375,0.015625,0.00390625,-0.00390625,0.0,0.001953125
2026-09-03T16:18:24.546331,0.49676513671875,0.49908447265625,0.500732421875,0.50341796875,0.015625,0.015625,0.00390625,0.001953125,-0.001953125,0.0
2026-09-03T16:18:24.644284,0.49664306640625,0.4990234375,0.50079345703125,0.5035400390625,-0.0234375,0.015625,0.00390625,-0.00390625,-0.001953125,0.0
2026-09-03T16:18:24.754461,0.49652099609375,0.49896240234375,0.5008544921875,0.50372314453125,-0.0234375,-0.0234375,0.00390625,0.0,-0.001953125,0.0
2026-09-03T16:18:24.844389,0.49639892578125,0.49884033203125,0.50091552734375,0.5037841796875,-0.0234375,-0.0234375,0.00390625,-0.001953125,0.001953125,0.00390625
2026-09-03T16:18:24.952251,0.496337890625,-1.501220703125,0.50091552734375,0.50390625,0.015625,0.015625,-0.03125,-0.001953125,0.0,0.001953125
2026-09-03T16:18:25.053197,0.49627685546875,0.498779296875,0.5009765625,0.50396728515625,0.0234375,0.015625,0.00390625,0.0,0.0,0.001953125
2026-09-03T16:18:25.141842,0.4962158203125,0.49871826171875,0.5009765625,0.5040283203125,-0.015625,0.0234375,-0.03125,-0.00390625,-0.001953125,-0.001953125
2026-09-03T16:18:25.242242,0.49609375,0.49871826171875,0.5009765625,0.504150390625,0.0234375,0.0234375,0.01171875,-0.001953125,0.0,0.0
2026-09-03T16:18:25.341108,0.49603271484375,0.49871826171875,0.5009765625,0.50421142578125,0.0234375,0.0234375,0.01171875,-0.00390625,0.0,0.0
2026-09-03T16:18:25.441856,0.49603271484375,0.49871826171875,0.5009765625,0.50421142578125,-0.0234375,-0.015625,-0.0234375,0.0,-0.001953125,0.0
2026-09-03T16:18:25.542758,0.49603271484375,0.49871826171875,0.5009765625,0.50421142578125,0.015625,0.0234375,0.01171875,0.001953125,0.001953125,0.0
2026-09-03T16:18:25.642387,0.49603271484375,0.49871826171875,0.5009765625,0.50421142578125,0.015625,0.0234375,-0.0234375,0.001953125,0.001953125,0.0
2026-09-03T16:18:25.740716,0.49603271484375,0.49871826171875,0.5009765625,0.50421142578125,0.015625,0.015625,-0.015625,0.0,0.0,0.0
2026-09-03T16:18:25.835669,0.49603271484375,0.4986572265625,0.5009765625,0.5042724609375,0.015625,-0.0234375,0.01953125,0.0,0.0,-0.001953125
2026-09-03T16:18:25.941221,0.49603271484375,0.4986572265625,0.5009765625,0.5042724609375,0.015625,0.015625,0.00390625,0.001953125,0.0,0.001953125
2026-09-03T16:18:26.041207,0.49609375,0.4986572265625,0.5009765625,0.50421142578125,0.015625,0.015625,-0.0234375,0.001953125,0.0,0.001953125
2026-09-03T16:18:26.141349,0.49615478515625,0.4986572265625,0.5009765625,0.50421142578125,-0.0234375,-0.0234375,-0.0234375,0.0,-0.00390625,0.001953125
2026-09-03T16:18:26.241475,0.49615478515625,0.4986572265625,0.50091552734375,0.50421142578125,-0.0234375,0.015625,-0.015625,0.001953125,0.0,-0.001953125
2026-09-03T16:18:26.349819,0.49615478515625,0.49871826171875,0.50091552734375,0.504150390625,0.0546875,0.015625,-0.015625,0.001953125,0.001953125,0.001953125
2026-09-03T16:18:26.442075,0.49615478515625,0.49871826171875,0.5009765625,0.50408935546875,0.0078125,-0.0234375,-0.0078125,0.0,0.001953125,-0.001953125
2026-09-03T16:18:26.549447,0.4962158203125,0.498779296875,0.5009765625,0.5040283203125,-0.06640625,0.015625,0.02734375,0.0,0.0,-0.001953125
2026-09-03T16:18:26.641989,0.4962158203125,0.498779296875,0.50091552734375,0.50408935546875,-0.0078125,0.015625,0.01953125,0.0,0.0,0.0
2026-09-03T16:18:26.756910,0.49615478515625,0.49884033203125,0.50091552734375,0.50408935546875,-0.0078125,-0.0234375,0.01171875,-0.00390625,0.0,-0.001953125
2026-09-03T16:18:26.853329,0.49615478515625,0.49884033203125,0.5008544921875,0.50408935546875,0.0625,0.015625,0.00390625,0.0,-0.001953125,0.001953125
2026-09-03T16:18:26.950111,0.49615478515625,0.498779296875,0.5008544921875,0.504150390625,-0.0234375,0.0078125,-0.0234375,0.0,0.001953125,0.0
2026-09-03T16:18:27.050747,0.49609375,0.49884033203125,0.5008544921875,0.504150390625,-0.015625,-0.03125,0.01953125,0.0,0.0,0.001953125
2026-09-03T16:18:27.152282,0.49603271484375,0.498779296875,0.50091552734375,0.50421142578125,0.0546875,0.0078125,0.01953125,0.0,-0.001953125,0.001953125
2026-09-03T16:18:27.251460,0.49609375,0.49884033203125,0.5008544921875,0.50421142578125,0.0078125,0.015625,0.01171875,0.0,0.0,-0.001953125
2026-09-03T16:18:27.354004,0.49609375,0.49884033203125,0.5008544921875,0.50421142578125,-0.03125,0.0078125,-0.03125,0.0,0.0,0.0
2026-09-03T16:18:27.451244,0.49609375,0.498779296875,0.50091552734375,0.504150390625,-0.03125,-0.03125,0.01171875,0.0,0.001953125,0.0
2026-09-03T16:18:27.550640,0.49609375,0.498779296875,0.5009765625,0.50408935546875,-0.0234375,0.015625,0.01171875,0.0,0.0,0.0
2026-09-03T16:18:27.651459,0.49615478515625,0.49871826171875,0.50103759765625,0.50408935546875,-0.03125,0.015625,-0.0234375,0.001953125,0.0,0.001953125
2026-09-03T16:18:27.751631,0.49615478515625,0.49871826171875,0.50103759765625,0.5040283203125,0.0078125,-0.0234375,0.01171875,-0.001953125,0.001953125,0.0
2026-09-03T16:18:27.852192,0.49615478515625,0.49871826171875,0.5010986328125,0.5040283203125,-0.03125,0.015625,0.01171875,-0.001953125,0.001953125,0.001953125
2026-09-03T16:18:27.966566,0.49615478515625,0.4986572265625,0.50115966796875,0.50396728515625,0.015625,-0.0234375,-0.0234375,0.001953125,-0.001953125,-0.001953125
2026-09-03T16:18:28.068551,0.49615478515625,0.4986572265625,0.501220703125,0.5040283203125,-0.0234375,-0.0234375,0.01171875,0.00390625,-0.001953125,0.00390625
2026-09-03T16:18:28.168350,0.49609375,0.4986572265625,0.501220703125,0.5040283203125,0.015625,0.0234375,0.01171875,0.0,0.001953125,-0.001953125
2026-09-03T16:18:28.256635,0.49615478515625,0.4986572265625,0.501220703125,0.5040283203125,0.015625,-0.015625,0.00390625,0.0,0.0,0.0
2026-09-03T16:18:28.382181,0.49609375,0.49859619140625,0.501220703125,0.5040283203125,0.0078125,-0.015625,0.01171875,0.0,0.0,0.001953125
2026-09-03T16:18:28.455061,0.49615478515625,0.49859619140625,0.501220703125,0.5040283203125,0.0078125,0.0234375,0.01171875,0.001953125,-0.001953125,0.0
2026-09-03T16:18:28.553888,0.49615478515625,0.49859619140625,0.501220703125,0.50396728515625,-0.03125,-0.015625,0.01171875,0.0,0.001953125,0.001953125
2026-09-03T16:18:28.653391,0.49615478515625,0.49859619140625,0.501220703125,0.50396728515625,0.0078125,-0.015625,0.00390625,0.0,0.0,0.0
2026-09-03T16:18:28.753227,0.49615478515625,0.49859619140625,0.50128173828125,0.50396728515625,0.015625,0.015625,-0.03125,0.001953125,0.0,0.0
2026-09-03T16:18:28.845002,0.49609375,0.49853515625,0.50128173828125,0.5040283203125,-0.0234375,0.015625,0.00390625,0.0,0.0,0.0
2026-09-03T16:18:29.069297,0.49603271484375,0.49853515625,0.50128173828125,0.50408935546875,-0.0234375,-0.0234375,0.00390625,0.001953125,0.0,-0.001953125
2026-09-03T16:18:29.163591,0.49603271484375,0.49853515625,0.50128173828125,0.504150390625,0.015625,0.015625,0.00390625,0.0,-0.00390625,0.0
2026-09-03T16:18:29.292222,0.49603271484375,0.49847412109375,0.50128173828125,0.50421142578125,0.0546875,0.015625,0.00390625,-0.001953125,0.0,0.0
2026-09-03T16:18:29.377235,0.49603271484375,0.49847412109375,0.50128173828125,0.504150390625,0.0,0.015625,0.01171875,0.0,0.0,0.0
2026-09-03T16:18:29.478778,0.49609375,0.4984130859375,0.5013427734375,0.50408935546875,-0.0390625,0.015625,0.01171875,0.001953125,0.0,-0.001953125
2026-09-03T16:18:29.578944,0.49609375,0.4984130859375,0.5013427734375,0.504150390625,0.0078125,-0.0234375,-0.0234375,-0.001953125,0.001953125,0.001953125
2026-09-03T16:18:29.679913,0.49615478515625,0.49847412109375,0.50128173828125,0.50408935546875,0.046875,0.015625,-0.0234375,0.00390625,-0.001953125,0.0
2026-09-03T16:18:29.778981,0.49609375,0.49847412109375,0.50128173828125,0.50408935546875,-0.03125,-0.0234375,0.01171875,0.0,0.0,0.0
2026-09-03T16:18:29.875830,0.49615478515625,0.4984130859375,0.50128173828125,0.50408935546875,0.0078125,-0.0234375,0.01171875,-0.00390625,0.0,0.0
2026-09-03T16:18:29.975591,0.49615478515625,0.4984130859375,0.50128173828125,0.50408935546875,0.0078125,0.015625,0.01171875,0.0,0.0,-0.001953125
2026-09-03T16:18:30.074804,0.49615478515625,0.4984130859375,0.50128173828125,0.504150390625,0.0078125,-0.0234375,-0.03125,0.0,0.0,0.0
2026-09-03T16:18:30.177361,0.49615478515625,0.4984130859375,0.50128173828125,0.504150390625,-0.03125,-0.0234375,0.00390625,0.0,0.0,0.001953125
2026-09-03T16:18:30.278726,0.49615478515625,0.4984130859375,0.501220703125,0.504150390625,0.046875,0.015625,0.01171875,0.001953125,0.0,0.0
2026-09-03T16:18:30.426112,0.49615478515625,0.4984130859375,0.50128173828125,0.50408935546875,0.0078125,0.015625,0.01171875,0.0,0.0,0.0
2026-09-03T16:18:30.460128,0.49615478515625,0.4984130859375,0.50128173828125,0.50408935546875,0.0078125,-0.0234375,0.01171875,0.0,0.0,0.0
2026-09-03T16:18:30.578466,0.49615478515625,0.4984130859375,0.50128173828125,0.50408935546875,-0.03125,-0.0234375,-0.03125,0.0,0.0,0.0
2026-09-03T16:18:30.678373,0.49615478515625,0.49835205078125,0.50128173828125,0.504150390625,-0.03125,-0.015625,0.00390625,0.0,0.0,0.0
2026-09-03T16:18:30.781090,0.49615478515625,0.49835205078125,0.50128173828125,0.504150390625,0.0078125,0.015625,-0.0234375,0.0,0.0,0.0
2026-09-03T16:18:30.882264,0.49615478515625,0.4984130859375,0.50128173828125,0.504150390625,0.015625,-0.0234375,0.01171875,0.0,0.0,0.0
2026-09-03T16:18:30.978646,0.49615478515625,0.4984130859375,0.50128173828125,0.504150390625,-0.0234375,-0.0234375,0.01171875,0.0,0.0,0.0
2026-09-03T16:18:31.078033,0.49615478515625,0.4984130859375,0.501220703125,0.504150390625,-0.0234375,0.0234375,-0.0234375,0.0,0.0,0.0
2026-09-03T16:18:31.187865,0.49615478515625,0.49847412109375,0.501220703125,0.504150390625,0.015625,0.015625,0.01171875,0.0,0.0,0.0
2026-09-03T16:18:31.277696,0.49609375,0.49847412109375,0.501220703125,0.504150390625,-0.0234375,-0.0234375,-0.0234375,0.0,0.0,0.0
2026-09-03T16:18:31.396602,0.49615478515625,0.49847412109375,0.501220703125,0.504150390625,0.0078125,-0.015625,0.01171875,0.0,0.0,0.0
2026-09-03T16:18:31.487743,0.49615478515625,0.49847412109375,0.501220703125,0.504150390625,0.0078125,0.0234375,0.01171875,0.0,0.0,0.0
2026-09-03T16:18:31.588149,0.49615478515625,0.49847412109375,0.501220703125,0.504150390625,0.0078125,-0.015625,0.01171875,0.0,0.0,0.0
2026-09-03T16:18:31.674946,0.4962158203125,0.4984130859375,0.501220703125,0.50408935546875,0.0,-0.015625,0.01171875,0.0,0.0,0.0
2026-09-03T16:18:31.777775,0.4962158203125,0.4984130859375,0.501220703125,0.50408935546875,0.0,-0.015625,0.01171875,0.0,0.0,0.0
2026-09-03T16:18:31.891109,0.4962158203125,0.4984130859375,0.50128173828125,0.50408935546875,0.046875,0.0234375,0.00390625,0.0,0.0,0.0
2026-09-03T16:18:31.977698,0.4962158203125,0.49835205078125,0.50128173828125,0.50408935546875,0.0,0.015625,0.00390625,0.0,0.0,0.0
2026-09-03T16:18:32.086399,0.4962158203125,0.49835205078125,0.5013427734375,0.50408935546875,0.0078125,0.015625,0.01171875,0.0,0.0,0.0
2026-09-03T16:18:32.175823,0.4962158203125,0.49835205078125,0.5013427734375,0.50408935546875,0.0078125,0.015625,0.01171875,0.0,0.0,0.0
2026-09-03T16:18:32.287189,0.4962158203125,0.49835205078125,0.5013427734375,0.50408935546875,0.0078125,0.015625,-0.03125,0.0,0.0,0.0
2026-09-03T16:18:32.375813,0.4962158203125,0.49835205078125,0.5013427734375,0.50408935546875,0.0078125,-0.0234375,0.01171875,0.0,0.0,0.0
2026-09-03T16:18:32.485539,0.4962158203125,0.49835205078125,0.5013427734375,0.50408935546875,0.0078125,0.015625,0.01171875,0.0,0.0,0.0
2026-09-03T16:18:32.585828,0.4962158203125,0.49835205078125,0.5013427734375,0.50408935546875,-0.03125,-0.0234375,0.01171875,0.0,0.0,0.0
2026-09-03T16:18:32.687652,0.4962158203125,0.49835205078125,0.50128173828125,0.50408935546875,0.015625,0.015625,0.01171875,0.0,0.0,0.0
2026-09-03T16:18:32.785858,0.4962158203125,0.4984130859375,0.50128173828125,0.50408935546875,0.0078125,-0.03125,0.01171875,0.0,0.0,0.0
2026-09-03T16:18:32.884256,0.4962158203125,0.4984130859375,0.50128173828125,0.50408935546875,-0.03125,-0.0234375,0.01171875,0.0,0.0,0.0
2026-09-03T16:18:32.988485,0.4962158203125,0.4984130859375,0.50128173828125,0.50408935546875,0.015625,-0.0234375,0.50390625,0.0,0.0,0.0
2026-09-03T16:18:33.089855,0.49615478515625,0.4984130859375,0.50128173828125,0.504150390625,0.046875,0.015625,0.00390625,0.0,0.0,0.0
2026-09-03T16:18:33.213119,0.49615478515625,0.4984130859375,0.50128173828125,0.504150390625,-0.03125,0.0234375,-0.03125,0.0,0.0,0.0
2026-09-03T16:18:33.269964,0.49615478515625,0.49835205078125,0.50128173828125,0.504150390625,0.0078125,0.0234375,0.01171875,0.0,0.0,0.0
2026-09-03T16:18:33.402208,0.49615478515625,0.49835205078125,0.5013427734375,0.504150390625,0.0078125,0.0234375,0.01171875,0.0,0.0,0.0
2026-09-03T16:18:33.490860,0.49615478515625,0.49835205078125,0.50128173828125,0.504150390625,0.0078125,0.0234375,-0.0234375,0.0,0.0,0.0
2026-09-03T16:18:33.593304,0.49615478515625,0.49835205078125,0.50128173828125,0.504150390625,-0.03125,0.015625,0.01171875,0.0,0.0,0.0
2026-09-03T16:18:33.692514,0.49615478515625,0.49835205078125,0.50128173828125,0.504150390625,0.0078125,0.015625,0.01171875,0.0,0.0,0.0
2026-09-03T16:18:33.814798,0.49615478515625,0.4984130859375,0.50128173828125,0.50408935546875,0.0078125,0.015625,-0.03125,0.0,0.0,0.0
2026-09-03T16:18:33.872693,0.49615478515625,0.49835205078125,0.5013427734375,0.504150390625,0.0078125,0.015625,0.00390625,0.0,0.0,0.0
2026-09-03T16:18:34.010030,0.49615478515625,0.49835205078125,0.5013427734375,0.504150390625,0.0078125,0.0234375,-0.0234375,0.0,0.0,0.0
2026-09-03T16:18:34.099605,0.49615478515625,0.49835205078125,0.50128173828125,0.504150390625,-0.03125,-0.015625,-0.0234375,-0.001953125,0.0,-0.001953125
2026-09-03T16:18:34.189821,0.49615478515625,0.49835205078125,0.50128173828125,0.504150390625,0.0078125,0.015625,0.01953125,-0.001953125,0.0,0.001953125
2026-09-03T16:18:34.313338,0.49627685546875,0.4984130859375,0.501220703125,0.5040283203125,0.0078125,0.03125,0.01953125,0.001953125,0.001953125,0.001953125
2026-09-03T16:18:34.387681,0.496337890625,0.49847412109375,0.501220703125,0.50396728515625,0.078125,0.0234375,-0.046875,0.001953125,0.0,0.00390625
2026-09-03T16:18:34.500559,0.496337890625,0.49853515625,0.50115966796875,0.50390625,0.03125,0.0234375,-0.0390625,-0.00390625,0.001953125,0.005859375
2026-09-03T16:18:34.588854,0.4964599609375,0.49847412109375,0.5013427734375,0.50372314453125,-0.0234375,0.015625,0.0,0.001953125,0.0,-0.00390625
2026-09-03T16:18:34.700422,0.49652099609375,0.49847412109375,0.50140380859375,0.503662109375,-0.08203125,-0.0234375,0.0,0.001953125,0.0,-0.005859375
2026-09-03T16:18:34.789688,0.4964599609375,0.4984130859375,0.50140380859375,0.503662109375,-0.03125,-0.015625,0.02734375,-0.005859375,0.0,-0.0078125
2026-09-03T16:18:34.909520,0.4964599609375,0.49847412109375,0.50140380859375,0.503662109375,0.015625,-0.015625,0.01953125,0.00390625,0.0,0.005859375
2026-09-03T16:18:34.983596,0.49639892578125,0.49853515625,0.50128173828125,0.50372314453125,0.0546875,0.015625,-0.0234375,-0.00390625,0.0,-0.001953125
2026-09-03T16:18:35.096335,0.49639892578125,0.49853515625,0.50128173828125,0.50372314453125,0.0078125,0.015625,-0.0625,0.0,0.001953125,0.0
2026-09-03T16:18:35.187862,0.49639892578125,0.49859619140625,0.50128173828125,0.50372314453125,0.0,0.015625,-0.0078125,-0.005859375,0.0,0.001953125
2026-09-03T16:18:35.297851,0.49639892578125,0.49859619140625,0.50128173828125,0.50372314453125,0.0,0.015625,0.07421875,0.0,0.0,0.0
2026-09-03T16:18:35.396632,0.49652099609375,0.49859619140625,0.501220703125,0.50360107421875,0.0,-0.03125,0.01953125,0.0,0.0,0.0
2026-09-03T16:18:35.486265,0.49652099609375,0.49859619140625,0.501220703125,0.50360107421875,-0.0390625,0.015625,0.01171875,0.00390625,0.0,0.001953125
2026-09-03T16:18:35.597552,0.49652099609375,0.49859619140625,0.501220703125,0.503662109375,0.0078125,0.05078125,-0.0234375,0.001953125,0.001953125,-0.00390625
2026-09-03T16:18:35.696551,0.4964599609375,0.49853515625,0.50128173828125,0.50372314453125,-0.03125,0.0078125,0.00390625,-0.00390625,-0.00390625,-0.001953125
2026-09-03T16:18:35.797104,0.496337890625,0.49847412109375,0.5013427734375,0.50384521484375,0.0078125,-0.03125,0.03515625,0.001953125,0.0,0.001953125
2026-09-03T16:18:35.897078,0.49627685546875,0.4984130859375,0.5013427734375,0.50390625,0.0078125,0.0078125,-0.01171875,-0.00390625,-0.001953125,0.0
2026-09-03T16:18:35.984319,0.4962158203125,0.4984130859375,0.5013427734375,0.5040283203125,0.0078125,0.015625,0.00390625,-0.00390625,0.0,0.001953125
2026-09-03T16:18:36.084344,0.49615478515625,0.49835205078125,0.5013427734375,0.5040283203125,0.0078125,0.015625,-0.00390625,0.0,0.001953125,0.001953125
2026-09-03T16:18:36.184662,0.49609375,0.49835205078125,0.50140380859375,0.50408935546875,0.0078125,0.015625,0.00390625,0.0,-0.001953125,-0.001953125
2026-09-03T16:18:36.284538,0.49609375,0.498291015625,0.50146484375,0.50408935546875,0.0078125,-0.0234375,-0.00390625,0.001953125,0.0,0.0
2026-09-03T16:18:36.384741,0.49609375,0.498291015625,0.50146484375,0.504150390625,0.0,-0.0234375,-0.00390625,0.0,0.0,0.0
2026-09-03T16:18:36.484149,0.49603271484375,0.49822998046875,0.50152587890625,0.504150390625,0.0,0.015625,-0.00390625,0.0,0.0,0.001953125
2026-09-03T16:18:36.583954,0.49603271484375,0.4981689453125,0.5015869140625,0.50421142578125,0.0078125,0.015625,-0.00390625,0.0,0.0,0.0
2026-09-03T16:18:36.715759,0.49603271484375,-1.50189208984375,0.5015869140625,0.50421142578125,0.0,0.015625,-0.00390625,0.001953125,0.0,-0.001953125
2026-09-03T16:18:36.805301,0.49609375,0.49810791015625,0.50164794921875,0.504150390625,0.0,0.015625,-0.00390625,0.001953125,-0.001953125,-0.001953125
2026-09-03T16:18:36.908492,0.49609375,0.49810791015625,0.50164794921875,0.504150390625,0.0,0.015625,-0.00390625,0.001953125,0.0,0.001953125
2026-09-03T16:18:37.008356,0.49609375,0.49810791015625,0.50164794921875,0.504150390625,0.0078125,0.015625,0.00390625,0.00390625,0.0,0.001953125
2026-09-03T16:18:37.109879,0.49603271484375,0.49810791015625,0.50164794921875,0.504150390625,0.0078125,-0.0234375,0.00390625,0.0,0.0,0.0
2026-09-03T16:18:37.212582,0.49603271484375,0.4981689453125,0.5015869140625,0.504150390625,0.0078125,0.015625,0.00390625,0.0,0.0,0.0
2026-09-03T16:18:37.313664,0.49609375,0.4981689453125,0.5015869140625,0.504150390625,0.0078125,-0.0234375,0.00390625,-0.00390625,0.0,0.0
2026-09-03T16:18:37.413089,0.49615478515625,0.4981689453125,0.5015869140625,0.50408935546875,0.0078125,-0.0234375,0.00390625,0.00390625,0.0,0.001953125
2026-09-03T16:18:37.511477,0.49609375,0.4981689453125,0.5015869140625,0.50408935546875,0.0078125,0.0234375,0.01171875,-0.001953125,0.001953125,0.0
2026-09-03T16:18:37.606653,0.49609375,0.4903564453125,0.50152587890625,0.504150390625,0.0078125,0.0234375,0.00390625,0.0,0.0,0.0
2026-09-03T16:18:37.706631,0.49609375,0.4981689453125,0.5015869140625,0.504150390625,0.0078125,-0.015625,-0.00390625,0.0,0.0,0.0
2026-09-03T16:18:37.791930,0.49603271484375,0.4981689453125,0.5015869140625,0.504150390625,0.0078125,-0.015625,-0.0390625,0.0,0.0,0.0
2026-09-03T16:18:37.899334,0.49603271484375,0.4981689453125,0.5015869140625,0.50421142578125,0.0078125,0.0234375,0.00390625,0.0,0.0,0.0
2026-09-03T16:18:37.991409,0.49603271484375,0.4981689453125,0.5015869140625,0.504150390625,0.0,-0.015625,-0.03125,0.0,0.0,0.0
2026-09-03T16:18:38.109895,0.49609375,0.49810791015625,0.50164794921875,0.504150390625,0.0,0.0234375,0.00390625,0.0,0.0,0.0
2026-09-03T16:18:38.210106,0.49609375,0.49810791015625,0.50164794921875,0.50408935546875,0.0,0.015625,0.00390625,0.0,0.0,0.0
2026-09-03T16:18:38.306541,0.49609375,0.498046875,0.50164794921875,0.504150390625,0.0,0.0234375,-0.00390625,0.0,0.0,0.0
2026-09-03T16:18:38.407690,0.49609375,0.498046875,0.50164794921875,0.504150390625,-0.0390625,0.0234375,-0.03125,0.0,0.0,0.0
2026-09-03T16:18:38.498154,0.49609375,0.498046875,0.501708984375,0.50408935546875,0.0,-0.0234375,0.00390625,0.0,0.0,0.0
2026-09-03T16:18:38.596726,0.49615478515625,0.498046875,0.50164794921875,0.50408935546875,0.0,-0.0234375,0.01171875,0.0,0.0,0.0
2026-09-03T16:18:38.719033,0.49615478515625,0.49810791015625,0.50164794921875,0.50408935546875,0.0078125,0.015625,0.00390625,0.0,0.0,0.0
2026-09-03T16:18:38.808396,0.49615478515625,0.49810791015625,0.50164794921875,0.50408935546875,0.0078125,0.015625,0.00390625,0.0,0.0,0.0
2026-09-03T16:18:38.909585,0.49615478515625,0.49810791015625,0.50164794921875,0.50408935546875,0.0,0.015625,0.00390625,0.0,0.0,0.0
2026-09-03T16:18:39.007119,0.49615478515625,0.49810791015625,0.50164794921875,0.50408935546875,0.0,-0.0234375,0.00390625,0.0,0.0,0.0
2026-09-03T16:18:39.110256,0.49615478515625,0.49810791015625,0.50164794921875,0.50408935546875,0.0,-0.0234375,0.00390625,0.0,0.0,0.0
2026-09-03T16:18:39.209163,0.49615478515625,0.498046875,0.50164794921875,0.50408935546875,0.0,-0.0234375,-0.00390625,0.0,0.0,0.0
2026-09-03T16:18:39.309741,0.49615478515625,0.498046875,0.501708984375,0.50408935546875,0.0,0.0234375,-0.00390625,0.0,0.0,0.0
2026-09-03T16:18:39.408679,0.49615478515625,0.49798583984375,0.501708984375,0.50408935546875,0.0,0.015625,-0.00390625,0.0,0.0,0.0
2026-09-03T16:18:39.506698,0.49609375,0.49798583984375,0.50177001953125,0.50408935546875,0.0,0.0234375,-0.00390625,0.0,0.0,0.0
2026-09-03T16:18:39.608554,0.49609375,0.49798583984375,0.50177001953125,0.50408935546875,-0.0390625,-0.0234375,-0.00390625,0.0,0.0,0.0
2026-09-03T16:18:39.722125,0.49609375,0.4979248046875,0.50177001953125,0.504150390625,0.0,0.015625,-0.00390625,0.0,0.0,0.0
2026-09-03T16:18:39.825706,0.49609375,0.4979248046875,0.50177001953125,0.504150390625,0.0,0.015625,0.00390625,0.0,0.0,0.0
2026-09-03T16:18:39.906940,0.49609375,0.49798583984375,0.50177001953125,0.50408935546875,0.0,-0.0234375,0.00390625,0.0,0.0,0.0
2026-09-03T16:18:40.007300,0.49609375,0.4979248046875,0.50177001953125,0.504150390625,0.0,0.015625,-0.00390625,0.0,0.0,0.0
2026-09-03T16:18:40.117075,0.49609375,0.4979248046875,0.50177001953125,0.504150390625,0.046875,0.015625,-0.03125,0.0,0.0,0.0
2026-09-03T16:18:40.216256,0.49609375,0.49798583984375,0.50177001953125,0.504150390625,0.0,0.015625,0.00390625,0.0,0.0,0.0
2026-09-03T16:18:40.307151,0.49609375,0.49798583984375,0.50177001953125,0.504150390625,0.0,0.05078125,-0.03125,0.0,0.0,0.0
2026-09-03T16:18:40.419019,0.49609375,0.49798583984375,0.50177001953125,0.50408935546875,0.0390625,0.015625,0.00390625,0.0,0.0,0.0
2026-09-03T16:18:40.519470,0.49609375,0.49798583984375,0.50177001953125,0.50408935546875,0.0,-0.0234375,0.00390625,0.0,0.0,0.0
2026-09-03T16:18:40.627313,0.49615478515625,0.49798583984375,0.50177001953125,0.50408935546875,-0.0390625,-0.0234375,-0.00390625,0.0,0.0,0.0
2026-09-03T16:18:40.726339,0.49615478515625,0.49798583984375,0.50177001953125,0.50408935546875,0.0,-0.0234375,0.00390625,0.0,0.0,0.0
2026-09-03T16:18:40.850317,0.49615478515625,0.49798583984375,0.501708984375,0.50408935546875,0.0390625,0.0234375,-0.03125,0.0,0.0,0.0
2026-09-03T16:18:40.920414,0.49615478515625,0.49798583984375,0.501708984375,0.50408935546875,-0.0390625,0.015625,0.00390625,0.0,0.0,0.0
2026-09-03T16:18:41.024199,0.49615478515625,0.49798583984375,0.501708984375,0.50408935546875,-0.0390625,-0.0234375,0.00390625,0.0,0.0,0.0
2026-09-03T16:18:41.133669,0.49615478515625,0.49798583984375,0.501708984375,0.50408935546875,0.0078125,0.015625,0.00390625,-0.001953125,0.001953125,0.0
2026-09-03T16:18:41.221076,0.49615478515625,0.498046875,0.501708984375,0.50408935546875,0.0,0.05078125,-0.0234375,0.001953125,0.0,-0.001953125
2026-09-03T16:18:41.323271,0.48834228515625,0.498046875,0.501708984375,0.50408935546875,-0.0390625,-0.0234375,0.01171875,0.0,0.0,0.00390625
2026-09-03T16:18:41.419579,0.49615478515625,0.498046875,0.501708984375,0.5040283203125,0.0078125,-0.0234375,0.00390625,0.001953125,0.001953125,-0.00390625
2026-09-03T16:18:41.520372,0.49615478515625,0.498046875,0.501708984375,0.50408935546875,0.0078125,-0.015625,0.00390625,0.001953125,0.0,-0.001953125
2026-09-03T16:18:41.619151,0.49615478515625,0.498046875,0.50164794921875,0.50408935546875,0.0078125,0.0234375,0.00390625,0.001953125,0.0,-0.001953125
2026-09-03T16:18:41.720419,0.49615478515625,0.498046875,0.50164794921875,0.504150390625,-0.03125,0.0234375,0.00390625,0.0,0.001953125,-0.001953125
2026-09-03T16:18:41.819718,0.49615478515625,0.498046875,0.5015869140625,0.504150390625,0.0078125,0.0234375,0.00390625,0.001953125,-0.001953125,-0.00390625
2026-09-03T16:18:41.911383,0.49615478515625,0.49810791015625,0.5015869140625,0.504150390625,0.0390625,0.015625,0.00390625,0.0,0.0,-0.001953125
2026-09-03T16:18:42.010904,0.4962158203125,0.490234375,0.50152587890625,0.504150390625,0.0,0.015625,-0.03125,0.001953125,0.0,0.001953125
2026-09-03T16:18:42.119909,0.4962158203125,0.498046875,0.50152587890625,0.504150390625,-0.046875,0.015625,0.00390625,-0.00390625,0.0,-0.00390625
2026-09-03T16:18:42.220452,0.4962158203125,0.49798583984375,0.5015869140625,0.504150390625,0.0,0.015625,0.01171875,0.001953125,0.0,0.0
2026-09-03T16:18:42.320822,0.49627685546875,0.49798583984375,0.5015869140625,0.504150390625,0.0,-0.0234375,0.01171875,0.001953125,0.001953125,-0.001953125
2026-09-03T16:18:42.421665,0.49627685546875,0.498046875,0.50152587890625,0.50408935546875,0.0,0.015625,-0.03125,0.0,0.0,0.0
2026-09-03T16:18:42.520145,0.49627685546875,0.498046875,0.5015869140625,0.50408935546875,0.0,-0.0234375,0.01171875,0.0,0.0,0.0
2026-09-03T16:18:42.616771,0.496337890625,0.498046875,0.50152587890625,0.5040283203125,0.0390625,0.015625,0.01171875,0.0,0.0,0.0
2026-09-03T16:18:42.720596,0.496337890625,0.498046875,0.50152587890625,0.5040283203125,0.0,-0.0234375,0.01171875,0.0,0.0,0.0
2026-09-03T16:18:42.827958,0.496337890625,0.49810791015625,0.50152587890625,0.50396728515625,0.0,-0.0234375,0.00390625,0.0,0.0,0.0
2026-09-03T16:18:42.927553,0.496337890625,0.49810791015625,0.50152587890625,0.50396728515625,0.0390625,0.015625,-0.03125,0.0,0.001953125,0.001953125
2026-09-03T16:18:43.016490,0.49627685546875,0.49810791015625,0.50152587890625,0.5040283203125,0.0078125,-0.0234375,0.00390625,0.001953125,0.0,0.0
2026-09-03T16:18:43.111326,0.496337890625,0.49810791015625,0.50152587890625,0.5040283203125,0.0,-0.0234375,0.00390625,0.00390625,0.0,0.0
2026-09-03T16:18:43.212297,0.496337890625,0.498046875,0.50152587890625,0.5040283203125,0.0,-0.0234375,0.00390625,0.0,0.0,-0.001953125
2026-09-03T16:18:43.312115,0.496337890625,0.49810791015625,0.50152587890625,0.5040283203125,0.0,-0.0234375,-0.03125,0.00390625,0.0,0.0
2026-09-03T16:18:43.411360,0.496337890625,0.498046875,0.50152587890625,0.5040283203125,0.0,-0.0234375,0.00390625,0.001953125,-0.001953125,-0.001953125
2026-09-03T16:18:43.511562,0.49639892578125,0.49810791015625,0.50146484375,0.5040283203125,0.0078125,0.015625,0.00390625,0.0,0.001953125,0.00390625
2026-09-03T16:18:43.611616,0.496337890625,0.49810791015625,0.50146484375,0.5040283203125,0.0,0.015625,-0.00390625,0.00390625,0.0,0.0
2026-09-03T16:18:43.717280,0.496337890625,-1.501953125,0.50152587890625,0.5040283203125,0.0,0.015625,-0.00390625,0.001953125,-0.00390625,0.001953125
2026-09-03T16:18:43.818276,0.49627685546875,0.498046875,0.50152587890625,0.50408935546875,0.0,0.015625,-0.00390625,0.0,0.0,-0.001953125
2026-09-03T16:18:43.917300,0.49627685546875,0.49798583984375,0.5015869140625,0.504150390625,0.0078125,0.015625,-0.00390625,-0.001953125,-0.00390625,0.00390625
2026-09-03T16:18:44.017762,0.4962158203125,0.49798583984375,0.5015869140625,0.50421142578125,0.046875,-0.0234375,-0.00390625,0.001953125,0.001953125,-0.001953125
2026-09-03T16:18:44.112196,0.49615478515625,0.49798583984375,0.5015869140625,0.50421142578125,0.0078125,-0.0234375,0.00390625,0.0,0.0,0.0
2026-09-03T16:18:44.215815,0.49615478515625,0.498046875,0.50152587890625,0.50421142578125,0.0078125,0.0234375,-0.03125,0.0,0.0,0.0
2026-09-03T16:18:44.311083,0.49615478515625,0.498046875,0.50152587890625,0.50421142578125,0.0078125,0.015625,0.00390625,0.0,0.0,0.0
2026-09-03T16:18:44.412494,0.49615478515625,0.498046875,0.50152587890625,0.50421142578125,0.0078125,-0.0234375,-0.03125,0.0,0.0,0.0
2026-09-03T16:18:44.511083,0.49615478515625,0.498046875,0.50152587890625,0.50421142578125,-0.03125,-0.0234375,0.00390625,0.0,0.0,0.0
2026-09-03T16:18:44.611184,0.49615478515625,0.49810791015625,0.50152587890625,-1.49578857421875,0.0078125,0.015625,0.00390625,0.0,0.0,0.0
2026-09-03T16:18:44.711220,0.49615478515625,-1.50189208984375,0.50146484375,0.5042724609375,0.015625,0.015625,0.00390625,0.0,0.0,0.0
2026-09-03T16:18:44.811945,0.49609375,0.49810791015625,0.50146484375,0.5042724609375,0.015625,-0.0234375,-0.03125,0.0,0.0,0.0
2026-09-03T16:18:45.352111,0.49609375,-1.7518310546875,-6.103515625e-05,-6.103515625e-05,0.015625,-0.0234375,-0.03125,0.0,0.0,0.0
2026-09-03T16:18:45.451890,0.49609375,-1.7518310546875,-6.103515625e-05,-6.103515625e-05,0.015625,-0.0234375,-0.03125,0.0,0.0,0.0
2026-09-03T16:18:45.551972,0.49609375,-1.7518310546875,-6.103515625e-05,-6.103515625e-05,0.015625,-0.0234375,-0.03125,0.0,0.0,0.0
2026-09-03T16:18:45.652143,0.49609375,-1.7518310546875,-6.103515625e-05,-6.103515625e-05,0.015625,-0.0234375,-0.03125,0.0,0.0,0.0
2026-09-03T16:18:45.752245,0.49609375,-1.7518310546875,-6.103515625e-05,-6.103515625e-05,0.015625,-0.0234375,-0.03125,0.0,0.0,0.0
2026-09-03T16:18:45.852258,0.49609375,-1.7518310546875,-6.103515625e-05,-6.103515625e-05,0.015625,-0.0234375,-0.03125,0.0,0.0,0.0
2026-09-03T16:18:45.952697,0.49609375,-1.7518310546875,-6.103515625e-05,-6.103515625e-05,0.015625,-0.0234375,-0.03125,0.0,0.0,0.0
2026-09-03T16:18:46.052734,0.49609375,-1.7518310546875,-6.103515625e-05,-6.103515625e-05,0.015625,-0.0234375,-0.03125,0.0,0.0,0.0
2026-09-03T16:18:46.153049,0.49609375,-1.7518310546875,-6.103515625e-05,-6.103515625e-05,0.015625,-0.0234375,-0.03125,0.0,0.0,0.0
2026-09-03T16:18:46.253923,0.49609375,-1.7518310546875,-6.103515625e-05,-6.103515625e-05,0.015625,-0.0234375,-0.03125,0.0,0.0,0.0
2026-09-03T16:18:46.353083,0.49609375,-1.7518310546875,-6.103515625e-05,-6.103515625e-05,0.015625,-0.0234375,-0.03125,0.0,0.0,0.0
2026-09-03T16:18:46.453227,0.49609375,-1.7518310546875,-6.103515625e-05,-6.103515625e-05,0.015625,-0.0234375,-0.03125,0.0,0.0,0.0
2026-09-03T16:18:46.553297,0.49609375,-1.7518310546875,-6.103515625e-05,-6.103515625e-05,0.015625,-0.0234375,-0.03125,0.0,0.0,0.0
2026-09-03T16:18:46.654523,0.49609375,-1.7518310546875,-6.103515625e-05,-6.103515625e-05,0.015625,-0.0234375,-0.03125,0.0,0.0,0.0
2026-09-03T16:18:46.754332,0.49609375,-1.7518310546875,-6.103515625e-05,-6.103515625e-05,0.015625,-0.0234375,-0.03125,0.0,0.0,0.0
2026-09-03T16:18:46.855025,0.49609375,-1.7518310546875,-6.103515625e-05,-6.103515625e-05,0.015625,-0.0234375,-0.03125,0.0,0.0,0.0
2026-09-03T16:18:46.955504,0.49609375,-1.7518310546875,-6.103515625e-05,-6.103515625e-05,0.015625,-0.0234375,-0.03125,0.0,0.0,0.0
2026-09-03T16:18:47.055611,0.49609375,-1.7518310546875,-6.103515625e-05,-6.103515625e-05,0.015625,-0.0234375,-0.03125,0.0,0.0,0.0
2026-09-03T16:18:47.154355,0.49609375,-1.7518310546875,-6.103515625e-05,-6.103515625e-05,0.015625,-0.0234375,-0.03125,0.0,0.0,0.0
2026-09-03T16:18:49.187137,0.52960205078125,0.46832275390625,0.54046630859375,0.4561767578125,1.27734375,9.34375,-0.7109375,0.041015625,0.267578125,0.04296875
2026-09-03T16:18:49.263467,0.52154541015625,0.47723388671875,0.55096435546875,0.4434814453125,1.2109375,9.140625,-0.97265625,0.041015625,0.275390625,0.03515625
2026-09-03T16:18:49.374026,0.51849365234375,0.4803466796875,0.5545654296875,0.43927001953125,1.078125,9.09765625,-1.109375,0.0390625,0.30078125,0.03125
2026-09-03T16:18:49.472820,0.51654052734375,0.5052490234375,0.5489501953125,0.420166015625,1.1171875,8.57421875,-1.09375,0.02734375,0.318359375,0.03515625
2026-09-03T16:18:49.565702,0.509765625,0.512939453125,0.55584716796875,0.40985107421875,0.9921875,8.70703125,-1.37109375,0.017578125,0.32421875,0.0234375
2026-09-03T16:18:49.661858,0.50604248046875,0.516357421875,0.552001953125,0.40478515625,0.86328125,8.38671875,-1.1171875,0.01171875,0.33984375,0.03515625
2026-09-03T16:18:49.772561,0.49798583984375,0.52276611328125,0.56842041015625,0.39447021484375,0.80859375,7.97265625,-1.27734375,0.01171875,0.369140625,0.029296875
2026-09-03T16:18:49.865226,0.48382568359375,0.5323486328125,0.58251953125,0.37835693359375,0.90625,7.13671875,-1.0078125,0.017578125,0.37109375,0.03125
2026-09-03T16:18:49.983099,0.47882080078125,0.535888671875,0.5870361328125,0.37274169921875,0.65234375,7.0546875,-1.0546875,0.015625,0.384765625,0.025390625
2026-09-03T16:18:50.062859,0.4632568359375,0.5460205078125,0.6007080078125,0.35552978515625,0.40625,6.69140625,-0.96875,0.017578125,0.38671875,0.03515625
2026-09-03T16:18:50.159019,0.45794677734375,0.5494384765625,0.605224609375,0.34942626953125,0.375,6.63671875,-1.10546875,0.0234375,0.404296875,0.0390625
2026-09-03T16:18:50.274563,0.45233154296875,0.58721923828125,0.580078125,0.3377685546875,-0.10546875,0.20703125,-0.02734375,0.0234375,0.412109375,0.025390625
2026-09-03T16:18:50.372789,0.43731689453125,0.6043701171875,0.5855712890625,0.317138671875,0.0078125,-0.20703125,0.0625,0.0390625,0.404296875,0.021484375
2026-09-03T16:18:50.471722,0.4267578125,0.6116943359375,0.5928955078125,0.30364990234375,-0.16015625,0.54296875,-0.4140625,0.0078125,0.404296875,0.021484375
2026-09-03T16:18:50.573680,0.41534423828125,0.618896484375,0.5999755859375,0.2906494140625,-0.29296875,0.12890625,0.09375,0.021484375,0.4140625,0.02734375
2026-09-03T16:18:50.663067,0.40338134765625,0.626708984375,0.6060791015625,0.27777099609375,-0.16796875,-0.09375,0.046875,0.017578125,0.41015625,0.029296875
2026-09-03T16:18:50.782378,0.39727783203125,0.6302490234375,0.6092529296875,0.2716064453125,-0.21484375,-0.1171875,-0.1015625,0.017578125,0.38671875,0.03515625
2026-09-03T16:18:50.880427,0.3795166015625,0.6400146484375,0.61822509765625,0.25323486328125,0.08984375,0.04296875,0.03515625,0.013671875,0.39453125,0.033203125
2026-09-03T16:18:50.971642,0.36712646484375,0.64581298828125,0.62445068359375,0.2412109375,0.03515625,-0.0859375,0.05078125,0.021484375,0.388671875,0.03515625
2026-09-03T16:18:51.088308,0.35009765625,0.6536865234375,0.63311767578125,0.2220458984375,-0.109375,0.23828125,0.51953125,0.01953125,0.36328125,0.025390625
2026-09-03T16:18:51.159226,0.34454345703125,0.6556396484375,0.63616943359375,0.216064453125,0.01171875,-0.0859375,0.1796875,0.0,0.3515625,0.021484375
2026-09-03T16:18:51.288290,0.328369140625,0.6614990234375,0.64434814453125,0.19842529296875,-0.203125,-0.09375,0.0390625,0.021484375,0.34765625,0.044921875
2026-09-03T16:18:51.381892,0.31610107421875,0.66546630859375,0.6494140625,0.1883544921875,-0.01953125,-0.12890625,0.26171875,0.021484375,0.3359375,0.025390625
2026-09-03T16:18:51.485695,0.310302734375,0.66741943359375,0.65155029296875,0.18365478515625,0.08203125,0.28515625,0.359375,0.033203125,0.30078125,0.015625
2026-09-03T16:18:51.585798,0.29412841796875,0.6719970703125,0.657958984375,0.17022705078125,-0.01171875,0.21484375,-0.1328125,0.0234375,0.287109375,0.02734375
2026-09-03T16:18:51.681707,0.28387451171875,0.67462158203125,0.66204833984375,0.16107177734375,-0.21875,-0.17578125,-0.171875,0.015625,0.296875,0.009765625
2026-09-03T16:18:51.781185,0.2786865234375,0.67620849609375,0.66375732421875,0.15655517578125,-0.33203125,0.19140625,-0.22265625,-0.009765625,0.265625,0.01171875
2026-09-03T16:18:51.882273,0.26348876953125,0.6800537109375,0.66827392578125,0.1466064453125,-0.0703125,-0.23046875,-0.01171875,-0.01953125,0.240234375,0.013671875
2026-09-03T16:18:51.981245,0.25390625,0.68194580078125,0.67138671875,0.14068603515625,0.0,-0.0625,0.45703125,-0.0234375,0.232421875,0.005859375
2026-09-03T16:18:52.080535,0.24505615234375,0.6829833984375,0.6748046875,0.1346435546875,0.05859375,-0.4609375,0.53515625,0.001953125,0.2109375,0.013671875
2026-09-03T16:18:52.175240,0.24188232421875,0.68359375,0.67608642578125,0.1309814453125,-0.0390625,0.015625,0.55078125,0.013671875,0.1796875,0.015625
2026-09-03T16:18:52.282884,0.2335205078125,0.68524169921875,0.67901611328125,0.1219482421875,-0.171875,0.0234375,0.44921875,0.00390625,0.15234375,0.015625
2026-09-03T16:18:52.382716,0.22869873046875,0.68597412109375,0.6806640625,0.1173095703125,-0.109375,0.0625,0.51953125,0.01171875,0.130859375,0.005859375
2026-09-03T16:18:52.482752,0.21990966796875,0.68084716796875,0.688720703125,0.1173095703125,0.12890625,0.17578125,-0.2109375,-0.01171875,0.111328125,0.01171875
2026-09-03T16:18:52.582537,0.2137451171875,0.6778564453125,0.69378662109375,0.11614990234375,-0.22265625,-0.17578125,-0.2109375,-0.0234375,0.099609375,0.0234375
2026-09-03T16:18:52.681879,0.2081298828125,0.676513671875,0.69683837890625,0.1156005859375,0.125,0.265625,-0.24609375,-0.0390625,0.0859375,0.005859375
2026-09-03T16:18:52.767291,0.20550537109375,0.67584228515625,0.69830322265625,0.11553955078125,0.109375,-0.30078125,0.3046875,-0.029296875,0.06640625,0.015625
2026-09-03T16:18:52.882253,0.2001953125,0.6739501953125,0.70184326171875,0.114501953125,0.27734375,-0.15234375,0.6015625,-0.01171875,0.0546875,0.0
2026-09-03T16:18:52.981652,0.19775390625,0.672119140625,0.70440673828125,0.11376953125,-0.015625,-0.14453125,0.12890625,0.001953125,0.03515625,0.01171875
2026-09-03T16:18:53.083957,0.196044921875,0.67022705078125,0.70672607421875,0.11334228515625,-0.12890625,-0.08203125,0.00390625,0.01953125,0.021484375,0.009765625
2026-09-03T16:18:53.183012,0.1947021484375,0.6693115234375,0.70794677734375,0.11334228515625,-0.3515625,0.546875,-0.35546875,0.025390625,0.01171875,0.0
2026-09-03T16:18:53.277127,0.19390869140625,0.6688232421875,0.7086181640625,0.11370849609375,-0.08984375,0.30078125,-0.26171875,-0.009765625,0.0078125,0.013671875
2026-09-03T16:18:53.379108,0.1920166015625,0.6685791015625,0.70928955078125,0.11444091796875,-0.06640625,0.12890625,-0.12109375,-0.005859375,0.01171875,-0.005859375
2026-09-03T16:18:53.482654,0.19061279296875,0.6695556640625,0.70867919921875,0.11492919921875,0.1328125,0.328125,-0.21875,-0.009765625,0.015625,0.001953125
2026-09-03T16:18:53.579826,0.1893310546875,0.67132568359375,0.70733642578125,0.11474609375,0.09375,-0.35546875,-0.1171875,-0.0078125,0.0234375,0.005859375
2026-09-03T16:18:53.681906,0.1883544921875,0.67254638671875,0.70660400390625,0.1136474609375,-0.10546875,0.25390625,-0.09375,0.0078125,0.03125,-0.001953125
2026-09-03T16:18:53.773392,0.1871337890625,0.673583984375,0.7061767578125,0.1124267578125,-0.12109375,-0.015625,-0.1328125,-0.0078125,0.037109375,-0.00390625
2026-09-03T16:18:53.884613,0.1861572265625,0.6749267578125,0.70538330078125,0.1109619140625,-0.10546875,0.046875,0.0390625,0.0078125,0.037109375,0.009765625
2026-09-03T16:18:53.980980,0.184814453125,0.67578125,0.70513916015625,0.10943603515625,0.01953125,0.328125,-0.0390625,0.005859375,0.041015625,-0.005859375
2026-09-03T16:18:54.080831,0.1834716796875,0.67645263671875,0.70501708984375,0.1080322265625,-0.09765625,0.04296875,-0.0390625,-0.009765625,0.041015625,-0.001953125
2026-09-03T16:18:54.181076,0.1822509765625,0.6771240234375,0.70489501953125,0.10675048828125,0.04296875,-0.0234375,-0.015625,-0.00390625,0.037109375,0.00390625
2026-09-03T16:18:54.279620,0.1810302734375,0.67755126953125,0.70501708984375,0.10540771484375,0.37109375,-0.453125,0.2265625,-0.005859375,0.0390625,0.005859375
2026-09-03T16:18:54.381063,0.17962646484375,0.67767333984375,0.70550537109375,0.10400390625,0.015625,-0.12890625,-0.1640625,-0.005859375,0.041015625,0.0
2026-09-03T16:18:54.482771,0.1783447265625,0.677490234375,0.70611572265625,0.1029052734375,-0.08984375,-0.046875,0.15234375,-0.013671875,0.03515625,-0.0078125
2026-09-03T16:18:54.581250,0.17718505859375,0.67779541015625,0.706298828125,0.10205078125,-0.15625,0.22265625,0.06640625,0.001953125,0.029296875,-0.015625
2026-09-03T16:18:54.682268,0.1756591796875,0.677978515625,0.70660400390625,0.10125732421875,-0.2421875,0.0078125,0.08203125,-0.0078125,0.033203125,0.00390625
2026-09-03T16:18:54.904641,0.17388916015625,0.6788330078125,0.706298828125,0.10052490234375,0.0,0.26171875,-0.1328125,0.001953125,0.033203125,-0.013671875
2026-09-03T16:18:54.980176,0.17034912109375,0.67926025390625,0.70672607421875,0.10101318359375,-0.17578125,-0.0390625,0.07421875,-0.009765625,0.0234375,-0.001953125
2026-09-03T16:18:55.096537,0.1678466796875,0.6793212890625,0.70709228515625,0.10174560546875,0.0234375,0.2734375,-0.234375,-0.029296875,0.025390625,0.001953125
2026-09-03T16:18:55.192479,0.16571044921875,0.67919921875,0.7076416015625,0.10247802734375,-0.0390625,-0.19140625,0.28125,-0.01171875,0.025390625,0.00390625
2026-09-03T16:18:55.293991,0.16448974609375,0.67913818359375,0.7080078125,0.10205078125,-0.07421875,0.10546875,0.109375,-0.00390625,0.01953125,0.0078125
2026-09-03T16:18:55.428508,0.163330078125,0.67926025390625,0.70819091796875,0.101806640625,0.19140625,-0.11328125,-0.11328125,0.029296875,0.01171875,0.001953125
2026-09-03T16:18:55.479139,0.1619873046875,0.680419921875,0.7073974609375,0.1016845703125,-0.19921875,0.1875,-0.06640625,0.041015625,0.01171875,-0.01171875
2026-09-03T16:18:55.589655,0.1617431640625,0.68060302734375,0.70733642578125,0.1015625,-0.0703125,0.65234375,-0.52734375,0.015625,0.009765625,-0.00390625
2026-09-03T16:18:55.681496,0.16107177734375,0.68023681640625,0.70782470703125,0.1014404296875,0.0390625,0.0625,-0.04296875,-0.00390625,0.015625,0.0
2026-09-03T16:18:55.789608,0.16009521484375,0.68035888671875,0.7080078125,0.101318359375,-0.0234375,-0.1015625,-0.04296875,-0.0078125,0.015625,-0.021484375
2026-09-03T16:18:55.875736,0.1591796875,0.6802978515625,0.708251953125,0.10113525390625,0.24609375,-0.35546875,0.37890625,0.0078125,0.017578125,-0.0234375
2026-09-03T16:18:55.975881,0.15826416015625,0.6807861328125,0.7080078125,0.1009521484375,0.0078125,-0.25390625,0.171875,0.00390625,0.015625,-0.0078125
2026-09-03T16:18:56.076094,0.15740966796875,0.68121337890625,0.7078857421875,0.1005859375,-0.4140625,0.078125,0.04296875,0.013671875,0.017578125,0.009765625
2026-09-03T16:18:56.176225,0.15625,0.68157958984375,0.707763671875,0.10040283203125,-0.1875,-0.015625,-0.08984375,0.009765625,0.017578125,0.013671875
2026-09-03T16:18:56.291462,0.1534423828125,0.682373046875,0.70733642578125,0.10223388671875,-0.25390625,0.3984375,-0.1015625,-0.001953125,0.009765625,-0.013671875
2026-09-03T16:18:56.392947,0.150634765625,0.68310546875,0.70697021484375,0.104248046875,-0.17578125,0.55859375,-0.140625,-0.01171875,0.01953125,0.0
2026-09-03T16:18:56.490920,0.1475830078125,0.6839599609375,0.70654296875,0.10614013671875,-0.2890625,-0.109375,0.25,-0.017578125,0.015625,-0.025390625
2026-09-03T16:18:56.589079,0.1444091796875,0.68487548828125,0.70599365234375,0.1080322265625,-0.08203125,0.05859375,-0.05078125,0.00390625,0.01171875,0.009765625
2026-09-03T16:18:56.687881,0.14166259765625,0.68572998046875,0.70538330078125,0.11016845703125,-0.125,0.375,-0.015625,0.013671875,0.0,0.009765625
2026-09-03T16:18:56.777552,0.13885498046875,0.68572998046875,0.7054443359375,0.11309814453125,-0.1796875,0.3125,-0.51171875,-0.009765625,-0.00390625,0.017578125
2026-09-03T16:18:56.895629,0.13623046875,0.6851806640625,0.70611572265625,0.11578369140625,0.05859375,0.13671875,-0.28125,-0.0078125,0.00390625,-0.009765625
2026-09-03T16:18:56.991574,0.134033203125,0.6849365234375,0.7064208984375,0.11761474609375,-0.0703125,-0.23046875,-0.05859375,-0.01171875,0.00390625,0.015625
2026-09-03T16:18:57.094964,0.13323974609375,0.684814453125,0.70660400390625,0.1181640625,0.04296875,-0.1484375,0.078125,0.0,-0.00390625,0.00390625
2026-09-03T16:18:57.192429,0.1326904296875,0.68487548828125,0.70654296875,0.1187744140625,-0.171875,-0.046875,-0.09765625,0.0,0.001953125,-0.025390625
2026-09-03T16:18:57.294063,0.13189697265625,0.6849365234375,0.70648193359375,0.11962890625,0.02734375,-0.015625,0.01953125,0.0078125,0.005859375,-0.0078125
2026-09-03T16:18:57.393601,0.13116455078125,0.68536376953125,0.7061767578125,0.11993408203125,0.0,0.3671875,-0.05859375,0.01171875,0.00390625,0.001953125
2026-09-03T16:18:57.493646,0.13079833984375,0.685791015625,0.705810546875,0.1201171875,-0.09375,-0.109375,-0.08984375,0.001953125,-0.00390625,-0.015625
2026-09-03T16:18:57.592406,0.13055419921875,0.68597412109375,0.70556640625,0.1207275390625,-0.0078125,0.23828125,0.01171875,0.0078125,-0.00390625,-0.005859375
2026-09-03T16:18:57.693207,0.13043212890625,0.68634033203125,0.7052001953125,0.12109375,-0.20703125,0.13671875,0.01171875,0.00390625,0.0,0.00390625
2026-09-03T16:18:57.776658,0.13031005859375,0.6864013671875,0.705078125,0.1212158203125,0.12890625,-0.5234375,0.28515625,0.021484375,0.0,0.009765625
2026-09-03T16:18:57.892123,0.1302490234375,0.687255859375,0.70428466796875,0.12115478515625,0.16015625,-0.28515625,0.078125,0.03515625,0.0,-0.0078125
2026-09-03T16:18:57.992368,0.13043212890625,0.68804931640625,0.7034912109375,0.1212158203125,0.17578125,0.03125,-0.08984375,0.015625,-0.005859375,0.01171875
2026-09-03T16:18:58.093904,0.130615234375,0.6884765625,0.7030029296875,0.121337890625,0.01953125,0.34375,-0.21875,-0.0078125,0.0,-0.001953125
2026-09-03T16:18:58.193130,0.13043212890625,0.68841552734375,0.7030029296875,0.1217041015625,-0.26953125,0.21484375,-0.0546875,-0.017578125,0.0,0.00390625
2026-09-03T16:18:58.293937,0.1300048828125,0.6883544921875,0.70318603515625,0.12188720703125,-0.21484375,-0.078125,0.17578125,-0.005859375,0.00390625,0.001953125
2026-09-03T16:18:58.383072,0.12969970703125,0.6885986328125,0.69512939453125,0.12200927734375,-0.2734375,-0.0546875,0.15625,0.005859375,0.001953125,-0.013671875
2026-09-03T16:18:58.494133,0.12884521484375,0.68914794921875,0.70245361328125,0.12255859375,-0.07421875,0.015625,-0.03515625,0.013671875,0.0,-0.0078125
2026-09-03T16:18:58.592995,0.12725830078125,0.6898193359375,0.70184326171875,0.1241455078125,0.01171875,0.0625,0.00390625,0.021484375,-0.001953125,0.009765625
2026-09-03T16:18:58.694180,0.12579345703125,0.6905517578125,0.7010498046875,0.12567138671875,0.0390625,0.12109375,-0.140625,0.015625,0.00390625,0.00390625
2026-09-03T16:18:58.793378,0.125,0.69110107421875,0.70062255859375,0.12628173828125,-0.00390625,-0.0625,-0.0625,0.0078125,-0.001953125,0.0
2026-09-03T16:18:58.901228,0.1246337890625,0.69158935546875,0.7000732421875,0.126708984375,-0.12890625,0.7109375,-0.62890625,-0.021484375,-0.00390625,0.001953125
2026-09-03T16:22:34.876932,0.1241455078125,0.6912841796875,0.7003173828125,0.12762451171875,0.1953125,0.1875,0.0078125,-0.037109375,0.001953125,0.0
2026-09-03T16:22:34.987846,0.12371826171875,0.6910400390625,0.70062255859375,0.12786865234375,-0.04296875,-0.171875,0.19140625,-0.015625,0.0078125,-0.0078125
2026-09-03T16:22:35.085951,0.1226806640625,0.69091796875,0.7008056640625,0.1280517578125,-0.1640625,-0.02734375,0.05078125,-0.03125,0.001953125,0.0
2026-09-03T16:22:35.185838,0.12200927734375,0.69012451171875,0.70159912109375,0.12872314453125,-0.125,-0.0703125,-0.03515625,-0.0390625,0.0,0.009765625
2026-09-03T16:22:35.286981,0.12127685546875,0.6890869140625,0.70263671875,0.12921142578125,0.05078125,-0.34765625,0.05859375,-0.02734375,0.00390625,0.005859375
2026-09-03T16:22:35.376565,0.12042236328125,0.68865966796875,0.70318603515625,0.129638671875,-0.04296875,-0.0859375,0.2109375,-0.01171875,0.00390625,-0.009765625
2026-09-03T16:22:35.487040,0.12005615234375,0.6885986328125,0.7032470703125,0.1298828125,-0.140625,0.29296875,0.0546875,0.001953125,-0.0078125,0.005859375
2026-09-03T16:22:35.575924,0.11993408203125,0.68841552734375,0.70330810546875,0.13043212890625,-0.05078125,0.0,0.1484375,0.013671875,-0.0078125,0.017578125
2026-09-03T16:22:35.694267,0.11993408203125,0.6884765625,0.7032470703125,0.1304931640625,-0.00390625,0.16796875,-0.12109375,0.005859375,0.0,0.013671875
2026-09-03T16:22:35.774100,0.11968994140625,0.68829345703125,0.70343017578125,0.13067626953125,0.01171875,0.13671875,-0.265625,-0.005859375,-0.005859375,0.001953125
2026-09-03T16:22:35.884907,0.11956787109375,0.68804931640625,0.70367431640625,0.13104248046875,-0.01171875,0.12109375,-0.2109375,-0.03125,-0.001953125,0.009765625
2026-09-03T16:22:35.974509,0.11920166015625,0.6868896484375,0.7047119140625,0.1317138671875,0.02734375,-0.05859375,-0.01171875,-0.0390625,0.00390625,0.001953125
2026-09-03T16:22:36.075687,0.1190185546875,0.68670654296875,0.7049560546875,0.131591796875,0.28515625,-0.26953125,0.34765625,-0.009765625,0.0078125,0.00390625
2026-09-03T16:22:36.184945,0.118896484375,0.68670654296875,0.705078125,0.13116455078125,0.30078125,0.0,0.23828125,-0.001953125,-0.013671875,0.01171875
2026-09-03T16:22:36.274260,0.12115478515625,0.68548583984375,0.7060546875,0.13006591796875,0.328125,-0.0078125,-0.0234375,0.00390625,-0.017578125,0.0078125
2026-09-03T16:22:36.383684,0.12249755859375,0.68463134765625,0.706787109375,0.12908935546875,0.30859375,0.0078125,-0.16796875,-0.046875,0.005859375,0.005859375
2026-09-03T16:22:36.501867,0.1273193359375,0.680419921875,0.71075439453125,0.1248779296875,0.0078125,0.07421875,-0.07421875,-0.068359375,-0.0234375,0.0
2026-09-03T16:22:36.595179,0.1300048828125,0.67681884765625,0.71356201171875,0.1258544921875,-0.12109375,-0.19921875,0.9921875,-0.056640625,-0.072265625,-0.017578125
2026-09-03T16:22:36.694104,0.13250732421875,0.6746826171875,0.71441650390625,0.1297607421875,-0.2265625,-0.10546875,1.34375,-0.037109375,-0.1015625,-0.01953125
2026-09-03T16:22:36.797244,0.13604736328125,0.67333984375,0.7142333984375,0.13409423828125,-0.25,-0.0546875,1.2421875,0.001953125,-0.123046875,-0.0078125
2026-09-03T16:22:36.894150,0.1409912109375,0.67279052734375,0.71282958984375,0.138916015625,-0.3203125,0.109375,0.89453125,0.017578125,-0.154296875,-0.001953125
2026-09-03T16:22:36.994107,0.14251708984375,0.65289306640625,0.72869873046875,0.14959716796875,0.07421875,0.0234375,-0.83203125,-0.021484375,-0.1796875,-0.01171875
2026-09-03T16:22:37.094053,0.1466064453125,0.642822265625,0.73504638671875,0.15826416015625,0.171875,-0.05078125,-0.37890625,-0.0234375,-0.185546875,-0.029296875
2026-09-03T16:22:37.193817,0.15228271484375,0.63702392578125,0.73724365234375,0.16571044921875,-0.078125,0.1796875,-0.13671875,-0.01953125,-0.197265625,-0.017578125
2026-09-03T16:22:37.297158,0.1590576171875,0.63311767578125,0.7374267578125,0.17340087890625,-0.1796875,-0.08203125,0.12109375,-0.013671875,-0.220703125,-0.017578125
2026-09-03T16:22:37.395817,0.16632080078125,0.630126953125,0.736328125,0.181884765625,0.12109375,-0.265625,0.13671875,-0.005859375,-0.236328125,-0.02734375
2026-09-03T16:22:37.497293,0.173828125,0.62713623046875,0.73480224609375,0.19122314453125,-0.00390625,-0.1640625,-0.03125,-0.001953125,-0.248046875,-0.03125
2026-09-03T16:22:37.597995,0.18182373046875,0.62420654296875,0.73284912109375,0.20050048828125,-0.078125,0.2109375,-0.19140625,0.001953125,-0.255859375,-0.0234375
2026-09-03T16:22:37.696261,0.1904296875,0.62176513671875,0.730224609375,0.2095947265625,-0.0703125,0.23046875,-0.09765625,0.0078125,-0.263671875,-0.025390625
2026-09-03T16:22:37.796693,0.1990966796875,0.6190185546875,0.7274169921875,0.2191162109375,0.1953125,-0.05859375,-0.50390625,-0.01953125,-0.267578125,-0.03125
2026-09-03T16:22:37.880775,0.2110595703125,0.6175537109375,0.72607421875,0.22393798828125,0.1484375,-0.09765625,-0.1796875,-0.033203125,-0.265625,-0.033203125
2026-09-03T16:22:37.981268,0.21209716796875,0.616455078125,0.72149658203125,0.2332763671875,0.08984375,-0.2265625,-0.015625,-0.0390625,-0.279296875,-0.04296875
2026-09-03T16:22:38.089144,0.2208251953125,0.61376953125,0.71783447265625,0.24346923828125,-0.171875,-0.05078125,0.19140625,-0.021484375,-0.294921875,-0.048828125
2026-09-03T16:22:38.195650,0.23431396484375,0.60882568359375,0.712158203125,0.2593994140625,-0.23828125,0.1328125,0.30078125,-0.00390625,-0.296875,-0.03515625
2026-09-03T16:22:38.296056,0.243408203125,0.60589599609375,0.7078857421875,0.26934814453125,0.12890625,0.26171875,-0.609375,0.025390625,-0.2890625,-0.029296875
2026-09-03T16:22:38.395779,0.25213623046875,0.6021728515625,0.70416259765625,0.2791748046875,0.18359375,0.0546875,-0.70703125,-0.009765625,-0.28515625,-0.025390625
2026-09-03T16:22:38.496934,0.26055908203125,0.5975341796875,0.70074462890625,0.2899169921875,0.05078125,-0.09765625,-0.4765625,-0.03515625,-0.291015625,-0.037109375
2026-09-03T16:22:38.586583,0.26885986328125,0.59228515625,0.69720458984375,0.30133056640625,-0.1015625,-0.18359375,0.08203125,-0.044921875,-0.302734375,-0.046875
2026-09-03T16:22:38.696319,0.27886962890625,0.59014892578125,0.6904296875,0.31195068359375,-0.2109375,-0.19140625,0.6328125,-0.05078125,-0.3125,-0.05859375
2026-09-03T16:22:38.796769,0.2889404296875,0.5880126953125,0.68310546875,0.32269287109375,-0.125,0.0703125,0.4140625,-0.021484375,-0.3203125,-0.056640625
2026-09-03T16:22:38.895367,0.29827880859375,0.58343505859375,0.6776123046875,0.3338623046875,-0.125,0.078125,0.140625,-0.005859375,-0.322265625,-0.046875
2026-09-03T16:22:38.997020,0.30718994140625,0.57843017578125,0.67205810546875,0.34552001953125,0.015625,0.0234375,-0.10546875,-0.00390625,-0.326171875,-0.046875
2026-09-03T16:22:39.086283,0.31610107421875,0.572998046875,0.66632080078125,0.35736083984375,-0.09375,0.171875,-0.1171875,-0.01171875,-0.33203125,-0.052734375
2026-09-03T16:22:39.196007,0.32525634765625,0.56695556640625,0.66058349609375,0.3692626953125,-0.18359375,0.23046875,-0.1875,-0.02734375,-0.33984375,-0.04296875
2026-09-03T16:22:39.296693,0.3338623046875,0.5611572265625,0.65399169921875,0.382080078125,-0.08984375,-0.20703125,0.08203125,-0.044921875,-0.349609375,-0.044921875
2026-09-03T16:22:39.396524,0.3424072265625,0.55474853515625,0.6470947265625,0.395263671875,-0.1953125,-0.2734375,0.27734375,-0.03515625,-0.359375,-0.052734375
2026-09-03T16:22:39.495296,0.35052490234375,0.5479736328125,0.64007568359375,0.40887451171875,-0.03515625,-0.203125,0.09375,-0.0234375,-0.369140625,-0.037109375
2026-09-03T16:22:39.605681,0.35888671875,0.54083251953125,0.63287353515625,0.422119140625,-0.10546875,0.125,-0.0078125,-0.00390625,-0.37109375,-0.03125
2026-09-03T16:22:39.688757,0.36865234375,0.53375244140625,0.625,0.434326171875,0.05078125,0.30078125,-0.23828125,0.00390625,-0.37890625,-0.033203125
2026-09-03T16:22:39.805775,0.3787841796875,0.52685546875,0.61669921875,0.4456787109375,0.03515625,0.20703125,-0.7109375,0.001953125,-0.373046875,-0.03515625
2026-09-03T16:22:39.894348,0.3887939453125,0.5213623046875,0.60711669921875,0.45654296875,0.26171875,-0.3671875,-0.4921875,-0.02734375,-0.359375,-0.04296875
2026-09-03T16:22:40.004500,0.4000244140625,0.51654052734375,0.59686279296875,0.46575927734375,-0.09765625,0.0,-0.04296875,-0.01171875,-0.359375,-0.044921875
2026-09-03T16:22:40.095718,0.4110107421875,0.5118408203125,0.5865478515625,0.47442626953125,-0.2265625,-0.05859375,-0.35546875,0.001953125,-0.345703125,-0.04296875
2026-09-03T16:22:40.310217,0.42535400390625,0.5067138671875,0.5697021484375,0.48760986328125,-0.35546875,0.17578125,-0.4140625,-0.005859375,-0.3203125,-0.044921875
2026-09-03T16:22:40.755362,0.46649169921875,0.49383544921875,0.5172119140625,0.52056884765625,0.35546875,-0.0625,-0.07421875,-0.025390625,-0.244140625,-0.029296875
2026-09-03T16:22:40.857062,0.469970703125,0.492919921875,0.51220703125,0.523193359375,0.796875,-0.1640625,0.19140625,-0.05078125,-0.232421875,-0.02734375
2026-09-03T16:22:40.944194,0.47662353515625,0.48944091796875,0.50433349609375,0.52813720703125,0.609375,-0.140625,0.26171875,-0.01953125,-0.224609375,-0.021484375
2026-09-03T16:22:41.063358,0.48406982421875,0.48419189453125,0.49847412109375,0.53179931640625,0.40234375,-0.0390625,0.0078125,-0.015625,-0.220703125,-0.021484375
2026-09-03T16:22:41.232489,0.50360107421875,0.4664306640625,0.489013671875,0.53826904296875,0.28515625,0.09765625,-0.22265625,-0.01171875,-0.197265625,-0.0234375
2026-09-03T16:22:41.237191,0.50360107421875,0.4664306640625,0.489013671875,0.53826904296875,0.28515625,0.09765625,-0.22265625,-0.01171875,-0.197265625,-0.0234375
2026-09-03T16:22:41.362616,0.50732421875,0.4627685546875,0.4876708984375,0.53912353515625,0.4453125,-0.16796875,-0.17578125,-0.0234375,-0.1875,-0.013671875
2026-09-03T16:22:41.483572,0.51776123046875,0.452880859375,0.48052978515625,0.5439453125,0.19140625,-0.23828125,-0.07421875,-0.005859375,-0.140625,-0.03125
2026-09-03T16:22:41.572003,0.51898193359375,0.45135498046875,0.4783935546875,0.54595947265625,0.05078125,0.18359375,-0.05859375,-0.013671875,-0.13671875,-0.033203125
2026-09-03T16:22:41.661020,0.52142333984375,0.4481201171875,0.47430419921875,0.5498046875,0.09765625,-0.0859375,0.0546875,-0.005859375,-0.13671875,-0.021484375
2026-09-03T16:22:41.771260,0.52288818359375,0.44677734375,0.47222900390625,0.55133056640625,0.06640625,0.16796875,-0.21875,-0.01171875,-0.103515625,-0.015625
2026-09-03T16:22:41.861172,0.5364990234375,0.43804931640625,0.47186279296875,0.54559326171875,0.203125,0.0234375,0.04296875,-0.021484375,-0.1015625,-0.013671875
2026-09-03T16:22:41.979385,0.53936767578125,0.4356689453125,0.471435546875,0.54498291015625,0.29296875,0.10546875,0.05078125,-0.021484375,-0.095703125,0.009765625
2026-09-03T16:22:42.050931,0.54644775390625,0.42877197265625,0.47021484375,0.54449462890625,0.34375,-0.25390625,0.1875,-0.017578125,-0.08984375,0.0
2026-09-03T16:22:42.252486,0.5526123046875,0.4222412109375,0.46990966796875,0.54364013671875,0.2421875,-0.12109375,-0.17578125,0.025390625,-0.08203125,-0.01171875
2026-09-03T16:22:42.353547,0.55633544921875,0.417724609375,0.469970703125,0.543212890625,0.1328125,0.109375,-0.3515625,0.01171875,-0.068359375,-0.01953125
2026-09-03T16:22:42.588762,0.5650634765625,0.40679931640625,0.47100830078125,0.5416259765625,-0.0234375,0.36328125,-0.05078125,-0.02734375,-0.048828125,-0.015625
2026-09-03T16:22:42.658999,0.56622314453125,0.4053955078125,0.470947265625,0.54150390625,-0.08984375,-0.20703125,0.234375,-0.01953125,-0.044921875,-0.009765625
2026-09-03T16:22:42.907335,0.5692138671875,0.4013671875,0.4705810546875,0.54168701171875,0.03125,-0.16796875,-0.03515625,-0.005859375,-0.021484375,-0.005859375
2026-09-03T16:22:42.984210,0.56988525390625,0.40045166015625,0.47021484375,0.54193115234375,0.078125,-0.12109375,0.0390625,-0.001953125,-0.0234375,-0.009765625
2026-09-03T16:22:43.086727,0.5701904296875,0.39935302734375,0.47003173828125,0.54266357421875,-0.03515625,0.19921875,-0.04296875,-0.015625,-0.0234375,-0.015625
2026-09-03T16:22:43.186730,0.570556640625,0.3983154296875,0.4697265625,0.54327392578125,-0.13671875,-0.19921875,0.4609375,-0.0078125,-0.021484375,-0.01171875
2026-09-03T16:22:43.285707,0.57049560546875,0.396484375,0.47003173828125,0.54443359375,-0.11328125,0.1484375,0.0,0.005859375,-0.02734375,-0.01953125
2026-09-03T16:22:43.387025,0.570556640625,0.395263671875,0.4696044921875,0.545654296875,-0.1953125,0.16796875,-0.00390625,0.009765625,-0.03125,-0.013671875
2026-09-03T16:22:43.594379,0.57061767578125,0.39422607421875,0.46856689453125,0.54718017578125,0.01953125,-0.28515625,0.19140625,-0.00390625,-0.021484375,-0.01953125
2026-09-03T16:22:43.685523,0.57073974609375,0.3929443359375,0.46844482421875,0.548095703125,-0.1796875,0.0703125,0.15234375,-0.015625,-0.03515625,0.015625
2026-09-03T16:22:43.786624,0.571044921875,0.39129638671875,0.468017578125,0.54925537109375,0.171875,-0.0546875,-0.078125,-0.013671875,-0.037109375,-0.001953125
2026-09-03T16:22:43.886678,0.5712890625,0.390380859375,0.4671630859375,0.55047607421875,0.00390625,0.109375,0.08984375,0.0,-0.02734375,-0.0078125
2026-09-03T16:22:43.995274,0.57135009765625,0.3895263671875,0.46630859375,0.55169677734375,-0.09375,-0.40625,0.3046875,-0.017578125,-0.03125,-0.009765625
2026-09-03T16:22:44.085295,0.5714111328125,0.38885498046875,0.4652099609375,0.5531005859375,0.03515625,-0.17578125,0.08984375,0.0,-0.033203125,-0.01171875
2026-09-03T16:22:44.201731,0.57159423828125,0.3880615234375,0.464111328125,0.55438232421875,0.14453125,0.1484375,-0.171875,-0.009765625,-0.033203125,-0.009765625
2026-09-03T16:22:44.313724,0.5712890625,0.3870849609375,0.46337890625,0.555908203125,-0.0859375,0.0703125,0.015625,-0.0234375,-0.0234375,-0.001953125
2026-09-03T16:22:44.412835,0.5709228515625,0.38568115234375,0.46270751953125,0.557861328125,0.03515625,0.0859375,-0.0234375,-0.0234375,-0.025390625,-0.021484375
2026-09-03T16:22:44.500217,0.57073974609375,0.38519287109375,0.46173095703125,0.5592041015625,0.03515625,0.16796875,0.51953125,-0.009765625,-0.025390625,-0.021484375
2026-09-03T16:22:44.597143,0.57086181640625,0.385009765625,0.46112060546875,0.5596923828125,0.14453125,-0.0625,0.01953125,-0.01171875,-0.02734375,-0.009765625
2026-09-03T16:22:44.692517,0.57086181640625,0.38427734375,0.4603271484375,0.560791015625,-0.0703125,0.09375,-0.06640625,0.0078125,-0.021484375,-0.009765625
2026-09-03T16:22:44.801819,0.571044921875,0.38421630859375,0.45928955078125,0.5615234375,-0.03125,-0.24609375,-0.078125,0.025390625,-0.01171875,-0.01171875
2026-09-03T16:22:44.902363,0.5716552734375,0.384765625,0.45819091796875,0.5615234375,0.10546875,-0.2890625,-0.15234375,0.013671875,-0.005859375,-0.013671875
2026-09-03T16:22:45.002348,0.572021484375,0.38531494140625,0.45745849609375,0.561279296875,0.06640625,-0.1640625,-0.0390625,0.01953125,-0.009765625,-0.00390625
2026-09-03T16:22:45.103612,0.572998046875,0.38580322265625,0.45654296875,0.56072998046875,-0.109375,0.44921875,-0.3046875,0.001953125,-0.0078125,-0.017578125
2026-09-03T16:22:45.194976,0.57330322265625,0.3861083984375,0.455810546875,0.560791015625,-0.1171875,0.14453125,0.5,-0.015625,-0.0078125,-0.009765625
2026-09-03T16:22:45.426940,0.57318115234375,0.38623046875,0.454833984375,0.5616455078125,-0.03125,-0.0703125,0.1015625,0.001953125,0.0,-0.021484375
2026-09-03T16:22:45.522728,0.5732421875,0.38623046875,0.45465087890625,0.56170654296875,0.19921875,-0.3125,0.17578125,0.021484375,-0.013671875,-0.0234375
2026-09-03T16:22:45.622874,0.5733642578125,0.38623046875,0.45379638671875,0.562255859375,0.14453125,0.0078125,-0.2578125,0.01171875,-0.009765625,-0.0078125
2026-09-03T16:22:45.722129,0.57330322265625,0.38616943359375,0.45367431640625,0.5625,0.17578125,0.0703125,-0.37109375,-0.009765625,-0.00390625,0.01171875
2026-09-03T16:22:45.801079,0.5731201171875,0.38580322265625,0.453857421875,0.562744140625,-0.0234375,-0.15234375,0.14453125,0.00390625,-0.001953125,0.01171875
2026-09-03T16:22:45.925753,0.57379150390625,0.3851318359375,0.45361328125,0.56268310546875,0.0234375,-0.1171875,-0.0078125,-0.009765625,-0.015625,0.001953125
2026-09-03T16:22:48.736960,0.5712890625,0.379638671875,0.43896484375,0.58038330078125,-0.42578125,0.4296875,-0.5078125,-0.01171875,0.005859375,-0.021484375
2026-09-03T16:22:48.793922,0.5709228515625,0.3797607421875,0.43890380859375,0.58062744140625,0.2109375,-0.390625,0.359375,-0.01171875,0.001953125,-0.029296875
2026-09-03T16:22:48.904588,0.57080078125,0.3800048828125,0.438720703125,0.58074951171875,0.00390625,0.27734375,0.20703125,-0.0234375,0.00390625,-0.01171875
2026-09-03T16:22:49.002638,0.57012939453125,0.38055419921875,0.4384765625,0.581298828125,-0.22265625,-0.22265625,0.3046875,0.001953125,-0.001953125,-0.001953125
2026-09-03T16:22:49.104415,0.57049560546875,0.38116455078125,0.43780517578125,0.58099365234375,-0.31640625,0.09765625,0.328125,0.0234375,-0.01171875,0.03125
2026-09-03T16:22:49.192384,0.570556640625,0.38140869140625,0.43731689453125,0.5811767578125,-0.17578125,-0.28515625,-0.35546875,-0.01171875,-0.0078125,-0.013671875
2026-09-03T16:22:49.291662,0.5703125,0.38134765625,0.4371337890625,0.58160400390625,0.1171875,-0.55859375,0.35546875,0.0234375,-0.013671875,-0.01953125
2026-09-03T16:22:49.391529,0.57080078125,0.38140869140625,0.43621826171875,0.58172607421875,0.1015625,0.0546875,0.37890625,0.0234375,-0.01953125,0.00390625
2026-09-03T16:22:49.491479,0.5714111328125,0.38128662109375,0.43548583984375,0.581787109375,0.078125,-0.0546875,-0.265625,-0.009765625,-0.01171875,-0.021484375
2026-09-03T16:22:49.591240,0.571044921875,0.38140869140625,0.4345703125,0.582763671875,-0.07421875,-0.51171875,0.1796875,-0.009765625,-0.009765625,-0.005859375
2026-09-03T16:22:49.691706,0.57061767578125,0.3822021484375,0.43341064453125,0.58349609375,-0.41015625,0.37890625,-0.28515625,-0.0078125,-0.001953125,-0.01171875
2026-09-03T16:22:49.791280,0.5703125,0.38275146484375,0.43255615234375,0.5841064453125,-0.23828125,0.26171875,0.51171875,0.009765625,-0.013671875,0.041015625
2026-09-03T16:22:49.891048,0.57080078125,0.38287353515625,0.431640625,0.58416748046875,0.3671875,-0.25390625,-0.27734375,-0.03515625,0.00390625,0.013671875
2026-09-03T16:22:49.991166,0.56964111328125,0.383544921875,0.43096923828125,0.58538818359375,0.125,-0.8984375,-0.1796875,0.015625,-0.005859375,0.0234375
2026-09-03T16:22:50.190472,0.56976318359375,0.38543701171875,0.42803955078125,0.586181640625,-0.01953125,0.18359375,-0.0546875,0.0,-0.013671875,-0.00390625
2026-09-03T16:22:50.297141,0.56951904296875,0.38641357421875,0.42633056640625,0.5870361328125,-0.3125,-0.0390625,0.0234375,0.01953125,-0.0078125,-0.046875
2026-09-03T16:22:50.395534,0.5687255859375,0.38885498046875,0.42333984375,0.58831787109375,-0.1953125,-0.26171875,-0.22265625,-0.00390625,-0.013671875,-0.037109375
2026-09-03T16:22:50.496566,0.56634521484375,0.3931884765625,0.41839599609375,0.59124755859375,-0.73828125,-0.0625,-0.1171875,0.00390625,-0.013671875,-0.033203125
2026-09-03T16:22:50.596180,0.5645751953125,-1.60296630859375,0.41400146484375,-1.41436767578125,-0.37109375,0.17578125,-0.03125,-0.005859375,0.001953125,-0.009765625
2026-09-03T16:22:50.697191,0.56402587890625,-1.60162353515625,0.41253662109375,0.5941162109375,-1.18359375,0.13671875,0.12109375,0.01953125,-0.0078125,0.0
2026-09-03T16:22:50.797116,0.5645751953125,0.39923095703125,0.41119384765625,0.59393310546875,-0.68359375,0.296875,-0.0546875,0.00390625,-0.009765625,-0.01171875
2026-09-03T16:22:50.896105,-1.43951416015625,0.40496826171875,0.40478515625,0.598388671875,-0.46484375,0.12890625,-0.20703125,-0.013671875,-0.013671875,0.017578125
2026-09-03T16:22:50.996912,0.5574951171875,0.4090576171875,0.39996337890625,0.6015625,-0.39453125,-0.0625,-0.28125,-0.005859375,-0.0078125,-0.001953125
2026-09-03T16:22:51.096803,0.5556640625,0.412841796875,0.39569091796875,0.603515625,0.01953125,-0.22265625,0.0078125,-0.005859375,-0.001953125,-0.001953125
2026-09-03T16:22:51.197627,0.55426025390625,0.41583251953125,0.3924560546875,0.6048583984375,-0.01953125,-0.16796875,0.0234375,-0.01171875,-0.001953125,-0.0078125
2026-09-03T16:22:51.297192,0.55291748046875,0.418212890625,0.389892578125,0.6060791015625,-0.02734375,0.16015625,0.125,0.0078125,-0.0078125,-0.029296875
2026-09-03T16:22:51.396633,0.55224609375,0.4195556640625,-1.61187744140625,0.60693359375,0.09375,0.0625,-0.28125,0.0,-0.009765625,-0.015625
2026-09-03T16:22:51.497601,0.5518798828125,0.419677734375,0.387451171875,0.60760498046875,0.32421875,0.17578125,-0.078125,0.017578125,-0.001953125,-0.00390625
2026-09-03T16:22:51.597510,0.55255126953125,0.41961669921875,0.38720703125,0.607177734375,0.11328125,-0.26171875,0.32421875,-0.005859375,-0.005859375,0.025390625
2026-09-03T16:22:51.697537,0.552734375,0.41900634765625,0.38775634765625,0.6070556640625,0.2734375,-0.66796875,-0.0078125,-0.017578125,0.001953125,-0.005859375
2026-09-03T16:22:51.916446,0.5517578125,0.41986083984375,0.38671875,0.6080322265625,0.296875,-0.36328125,-0.12109375,-0.009765625,-0.001953125,-0.021484375
2026-09-03T16:22:52.015362,0.551025390625,0.42022705078125,0.38616943359375,0.6087646484375,0.3125,0.12890625,-0.09765625,-0.0078125,-0.001953125,-0.033203125
2026-09-03T16:22:52.116007,0.55010986328125,0.4205322265625,0.385986328125,0.60955810546875,0.2421875,0.18359375,0.0859375,-0.017578125,0.00390625,-0.021484375
2026-09-03T16:22:52.216083,0.54962158203125,0.42108154296875,0.38555908203125,0.60986328125,0.14453125,0.3125,0.4375,0.009765625,0.0078125,-0.017578125
2026-09-03T16:22:52.315581,0.55145263671875,0.4188232421875,0.38824462890625,0.60809326171875,-0.03515625,-0.24609375,-0.3125,-0.009765625,0.01171875,-0.037109375
2026-09-03T16:22:52.416500,0.55194091796875,0.417236328125,0.39019775390625,0.60748291015625,-0.1484375,-0.421875,-0.10546875,-0.03515625,0.005859375,-0.033203125
2026-09-03T16:22:52.514988,0.55157470703125,0.41729736328125,0.39044189453125,0.60760498046875,-0.171875,0.19921875,-0.10546875,-0.021484375,0.005859375,-0.015625
2026-09-03T16:22:52.616219,0.55047607421875,0.417724609375,0.3907470703125,0.60809326171875,-0.3671875,0.015625,0.22265625,-0.03515625,0.01171875,-0.01171875
2026-09-03T16:22:52.721533,0.5496826171875,0.41864013671875,0.3902587890625,0.6085205078125,-0.2265625,0.109375,0.03125,-0.0078125,0.00390625,-0.01171875
2026-09-03T16:22:52.815084,0.54840087890625,0.4205322265625,0.388427734375,0.60955810546875,-0.05859375,0.17578125,0.08203125,-0.009765625,0.005859375,-0.017578125
2026-09-03T16:22:52.921689,0.546630859375,0.42242431640625,0.38671875,0.61090087890625,0.01953125,-0.2734375,-0.19140625,-0.015625,0.0078125,-0.02734375
2026-09-03T16:22:53.015388,0.54473876953125,0.4241943359375,0.385498046875,0.61212158203125,-0.390625,-0.08984375,-0.0859375,-0.0078125,0.005859375,-0.03125
2026-09-03T16:22:53.122239,0.54302978515625,0.42669677734375,0.3831787109375,0.61334228515625,-0.01171875,-0.01171875,0.046875,-0.005859375,-0.001953125,-0.025390625
2026-09-03T16:22:53.223369,0.54119873046875,0.42919921875,0.380615234375,0.6148681640625,-0.03515625,0.23828125,0.18359375,-0.017578125,0.009765625,-0.033203125
2026-09-03T16:22:53.321603,0.5389404296875,0.431884765625,0.37835693359375,0.6163330078125,-0.1328125,0.17578125,0.15234375,0.001953125,0.009765625,-0.03125
2026-09-03T16:22:53.421785,0.5372314453125,0.4342041015625,0.3763427734375,0.61737060546875,-0.0859375,-0.20703125,-0.1640625,0.005859375,0.00390625,-0.033203125
2026-09-03T16:22:53.522239,0.535400390625,0.436279296875,0.374267578125,0.6187744140625,-0.109375,-0.3203125,0.23828125,0.013671875,0.001953125,-0.037109375
2026-09-03T16:22:53.621804,0.5347900390625,0.4376220703125,-1.627197265625,0.6192626953125,-0.13671875,0.14453125,-0.22265625,-0.01171875,0.263671875,-0.060546875
2026-09-03T16:22:53.723371,0.5333251953125,0.43902587890625,-1.6282958984375,0.6202392578125,-0.08203125,-0.10546875,-0.26171875,-0.2578125,0.009765625,-0.0625
2026-09-03T16:22:53.822074,0.531494140625,0.44061279296875,0.370361328125,0.6214599609375,0.09375,0.1953125,0.0078125,-0.0234375,0.00390625,-0.03125
2026-09-03T16:22:53.922590,0.5289306640625,0.44384765625,0.36767578125,0.6229248046875,-0.12109375,0.14453125,0.09765625,-0.00390625,0.015625,-0.044921875
2026-09-03T16:22:54.022567,0.5274658203125,0.4462890625,0.36578369140625,0.62353515625,-0.5703125,0.671875,0.37890625,0.029296875,-0.00390625,-0.009765625
2026-09-03T16:22:54.122462,0.52569580078125,0.4481201171875,0.36334228515625,0.6251220703125,0.01953125,0.29296875,-0.28125,0.05859375,-0.005859375,-0.015625
2026-09-03T16:22:54.223238,0.524169921875,0.44940185546875,0.36114501953125,0.62677001953125,0.0,0.22265625,-0.80078125,0.03125,0.001953125,-0.017578125
2026-09-03T16:22:54.446508,0.5218505859375,0.4520263671875,0.35870361328125,0.628173828125,0.0703125,0.12890625,-0.13671875,-0.009765625,0.01171875,-0.0703125
2026-09-03T16:22:54.539784,0.521240234375,0.45330810546875,0.35760498046875,0.62841796875,0.1015625,-0.26171875,0.28515625,0.0078125,0.009765625,-0.033203125
2026-09-03T16:22:54.657217,0.5220947265625,0.4544677734375,0.356689453125,0.62738037109375,0.0234375,-0.26171875,-0.046875,0.0390625,0.001953125,-0.005859375
2026-09-03T16:22:54.757027,0.523193359375,0.45538330078125,0.35577392578125,0.6263427734375,-0.17578125,0.0859375,-0.04296875,0.025390625,0.0,0.025390625
2026-09-03T16:22:54.857348,0.52392578125,0.45550537109375,0.35552978515625,0.625732421875,-0.3828125,0.34375,0.015625,0.013671875,-0.005859375,0.02734375
2026-09-03T16:22:54.960698,0.52545166015625,0.45654296875,0.35400390625,0.6246337890625,-0.14453125,-0.06640625,0.1875,0.044921875,-0.005859375,0.037109375
2026-09-03T16:22:55.039745,0.5257568359375,0.4573974609375,0.35296630859375,0.62432861328125,0.01171875,-0.28515625,-0.05859375,0.02734375,0.001953125,0.015625
2026-09-03T16:22:55.160445,0.5263671875,0.45941162109375,0.3511962890625,0.62335205078125,0.05859375,-0.29296875,-0.01171875,0.029296875,0.00390625,0.025390625
2026-09-03T16:22:55.253850,0.52740478515625,0.46051025390625,0.35003662109375,0.622314453125,-0.1328125,0.23046875,-0.07421875,0.0390625,0.00390625,0.025390625
2026-09-03T16:22:55.353852,0.52838134765625,0.46124267578125,0.34881591796875,0.62164306640625,-0.2265625,0.2890625,0.00390625,0.03125,-0.005859375,0.02734375
2026-09-03T16:22:55.454427,0.5294189453125,0.46136474609375,0.34832763671875,0.62091064453125,0.05078125,-0.04296875,0.01953125,0.025390625,-0.0078125,0.052734375
2026-09-03T16:22:55.554342,0.53076171875,0.4615478515625,0.34808349609375,0.6197509765625,0.171875,-0.28515625,0.07421875,0.03125,0.001953125,0.03515625
2026-09-03T16:22:55.645783,0.53131103515625,0.46160888671875,0.34808349609375,0.6192626953125,-0.03125,0.28125,-0.171875,0.021484375,-0.00390625,0.033203125
2026-09-03T16:22:55.737710,0.53271484375,0.4609375,0.34820556640625,0.61846923828125,0.09765625,-0.01953125,0.0,0.017578125,-0.009765625,0.021484375
2026-09-03T16:22:55.855783,0.53436279296875,0.460693359375,0.34930419921875,0.6165771484375,0.25390625,-0.2109375,-0.16796875,0.0078125,0.013671875,0.02734375
2026-09-03T16:22:55.954500,0.53521728515625,0.4610595703125,0.35009765625,0.6151123046875,-0.02734375,-0.20703125,0.19140625,0.015625,0.021484375,0.017578125
2026-09-03T16:22:56.055235,0.53631591796875,0.460693359375,0.35052490234375,0.61419677734375,-0.109375,0.05078125,0.07421875,0.01953125,0.001953125,0.017578125
2026-09-03T16:22:56.155097,0.5372314453125,0.46002197265625,0.35113525390625,0.61358642578125,0.10546875,-0.0078125,-0.09375,0.013671875,-0.00390625,0.029296875
2026-09-03T16:22:56.254455,0.537841796875,0.45977783203125,0.35211181640625,0.6126708984375,0.203125,-0.0546875,-0.015625,0.013671875,0.013671875,0.0234375
2026-09-03T16:22:56.353843,0.53851318359375,0.45928955078125,0.3533935546875,0.6116943359375,0.34765625,-0.0390625,0.13671875,0.009765625,0.013671875,0.029296875
2026-09-03T16:22:56.455120,0.54010009765625,0.45654296875,0.35626220703125,0.6107177734375,0.3984375,-0.0703125,0.12890625,0.005859375,-0.001953125,0.017578125
2026-09-03T16:22:56.554055,0.54107666015625,0.45574951171875,0.357177734375,0.60992431640625,0.53125,-0.1015625,0.08203125,0.015625,0.0,0.017578125
2026-09-03T16:22:56.655527,0.54144287109375,0.455810546875,0.35772705078125,0.60919189453125,0.578125,0.015625,0.015625,0.0078125,0.01171875,0.00390625
2026-09-03T16:22:56.756278,0.54156494140625,0.45574951171875,0.3582763671875,0.60882568359375,0.625,-0.0625,0.05078125,0.005859375,0.009765625,0.00390625
2026-09-03T16:22:56.854308,0.54547119140625,0.44873046875,0.36566162109375,0.60614013671875,0.16015625,0.0234375,0.03515625,-0.001953125,-0.001953125,0.001953125
2026-09-03T16:22:56.952970,0.54852294921875,0.4429931640625,0.3720703125,0.60369873046875,0.26953125,-0.046875,-0.01171875,-0.00390625,0.009765625,-0.005859375
2026-09-03T16:22:57.053733,0.55029296875,0.43927001953125,0.3768310546875,0.60186767578125,0.19140625,-0.046875,-0.078125,-0.015625,0.015625,-0.005859375
2026-09-03T16:22:57.152683,0.552001953125,0.436279296875,0.3804931640625,0.60015869140625,-0.2421875,0.19921875,0.06640625,-0.0078125,0.009765625,-0.001953125
2026-09-03T16:22:57.253744,0.5526123046875,0.4342041015625,0.38311767578125,0.59942626953125,-0.515625,0.03515625,0.04296875,-0.01953125,0.005859375,-0.01171875
2026-09-03T16:22:57.346259,0.55230712890625,0.43414306640625,0.38372802734375,0.59930419921875,-0.6328125,0.05859375,0.02734375,-0.005859375,0.013671875,-0.267578125
2026-09-03T16:22:57.445373,0.5513916015625,0.4349365234375,0.3831787109375,0.5999755859375,-0.453125,0.11328125,0.01953125,0.00390625,0.00390625,0.005859375
2026-09-03T16:22:57.663727,0.54864501953125,0.4376220703125,0.38006591796875,0.6025390625,0.140625,0.01953125,-0.609375,0.005859375,0.0,0.00390625
2026-09-03T16:22:57.762965,0.54718017578125,0.439453125,0.378173828125,0.603759765625,0.26953125,0.01953125,-0.01171875,0.0,0.005859375,0.00390625
2026-09-03T16:22:57.863582,0.54644775390625,0.44049072265625,0.37725830078125,0.604248046875,0.4765625,-0.0546875,0.06640625,-0.005859375,-0.001953125,0.009765625
2026-09-03T16:22:57.963095,0.54632568359375,0.44049072265625,0.37713623046875,0.6043701171875,0.78515625,-0.0078125,0.08984375,0.0,0.0,0.0078125
2026-09-03T16:22:58.063194,0.546875,0.43975830078125,0.37786865234375,0.60394287109375,0.74609375,-0.125,0.08203125,0.001953125,0.0,0.00390625
2026-09-03T16:22:58.163334,0.54705810546875,0.43963623046875,0.37811279296875,0.603759765625,0.515625,-0.046875,0.04296875,0.00390625,0.0,0.00390625
2026-09-03T16:22:58.262551,0.54736328125,0.439453125,0.37811279296875,0.60357666015625,0.484375,0.03515625,-0.03515625,0.001953125,0.0,0.0
2026-09-03T16:22:58.363290,0.54754638671875,0.43927001953125,0.3782958984375,0.60345458984375,-0.0625,-0.0390625,-0.03515625,0.0,0.001953125,-0.00390625
2026-09-03T16:22:58.463123,0.55340576171875,0.4306640625,0.38720703125,0.5986328125,-0.0078125,-0.03125,0.00390625,-0.00390625,0.00390625,0.001953125
2026-09-03T16:22:58.562270,0.5565185546875,0.42596435546875,0.39208984375,0.59588623046875,0.0078125,0.015625,0.00390625,-0.001953125,-0.001953125,0.001953125
2026-09-03T16:22:58.663321,0.5584716796875,0.423095703125,0.39495849609375,0.59423828125,0.0078125,0.0078125,-0.00390625,0.00390625,0.0,0.0
2026-09-03T16:22:58.763647,0.559814453125,0.42108154296875,0.39697265625,0.593017578125,0.0078125,-0.03125,-0.00390625,0.0,0.00390625,-0.005859375
2026-09-03T16:22:58.862246,0.560791015625,0.41961669921875,0.3985595703125,0.59210205078125,-0.0234375,0.0078125,-0.04296875,0.001953125,0.001953125,0.001953125
2026-09-03T16:22:58.962777,0.5611572265625,0.41900634765625,0.39923095703125,0.59173583984375,0.015625,0.046875,0.00390625,0.0,0.0,0.00390625
2026-09-03T16:22:59.062556,0.56146240234375,0.41851806640625,0.39971923828125,0.59149169921875,0.015625,0.0,0.00390625,-0.00390625,0.00390625,-0.001953125
2026-09-03T16:22:59.165189,0.5616455078125,0.41815185546875,0.4002685546875,0.5911865234375,-0.0234375,-0.03125,0.00390625,0.001953125,0.001953125,0.0
2026-09-03T16:22:59.262998,0.56182861328125,0.4178466796875,0.40069580078125,0.59088134765625,-0.30859375,0.0546875,-0.04296875,-0.001953125,0.001953125,-0.005859375
2026-09-03T16:22:59.365177,0.56201171875,0.417724609375,0.40087890625,0.5906982421875,-0.34375,0.07421875,-0.02734375,0.001953125,0.0,-0.00390625
2026-09-03T16:22:59.464314,0.56201171875,0.4178466796875,0.40081787109375,0.5906982421875,-0.1953125,0.03125,-0.05859375,0.00390625,0.0,0.0
2026-09-03T16:22:59.565373,0.561767578125,0.41827392578125,0.40045166015625,0.5908203125,-0.08203125,-0.015625,-0.00390625,0.0,0.00390625,-0.001953125
2026-09-03T16:22:59.786202,0.56103515625,0.41961669921875,0.399169921875,0.5914306640625,0.03515625,0.07421875,-0.01171875,-0.00390625,0.0,-0.001953125
2026-09-03T16:22:59.876819,0.5609130859375,0.4197998046875,0.39898681640625,0.591552734375,0.06640625,-0.0625,-0.00390625,0.0,0.0,-0.001953125
2026-09-03T16:22:59.982588,0.56072998046875,0.42022705078125,0.39862060546875,0.59173583984375,0.08984375,-0.0546875,0.02734375,-0.00390625,0.0,0.001953125
2026-09-03T16:23:00.077202,-1.43951416015625,0.4205322265625,0.39825439453125,0.5919189453125,0.1171875,0.03125,-0.00390625,-0.00390625,-0.001953125,0.0
2026-09-03T16:23:00.182917,0.560302734375,0.42083740234375,0.39794921875,0.59210205078125,0.06640625,-0.0078125,-0.01171875,0.00390625,0.0,0.0
2026-09-03T16:23:00.281965,0.560302734375,0.4210205078125,0.3978271484375,0.59210205078125,0.09375,-0.015625,0.01953125,0.0,0.0,-0.001953125
2026-09-03T16:23:00.382022,0.560302734375,0.4210205078125,0.39776611328125,0.59210205078125,0.0234375,-0.0078125,-0.02734375,-0.001953125,0.0,0.0
2026-09-03T16:23:00.476684,0.560302734375,0.4208984375,0.39788818359375,0.59210205078125,0.0078125,-0.0078125,-0.02734375,-0.251953125,-0.001953125,0.001953125
2026-09-03T16:23:00.583854,0.56048583984375,0.42071533203125,0.39813232421875,0.59197998046875,-0.03515625,-0.0078125,-0.02734375,0.001953125,0.0,0.0
2026-09-03T16:23:00.681542,0.560546875,0.42059326171875,0.398193359375,0.5919189453125,0.0390625,-0.0078125,0.01953125,0.001953125,-0.001953125,0.0
2026-09-03T16:23:00.782198,0.56060791015625,0.42047119140625,0.3983154296875,0.59185791015625,-0.0078125,0.0,0.01171875,0.00390625,0.001953125,0.00390625
2026-09-03T16:23:00.881279,0.5606689453125,0.42034912109375,0.3984375,0.591796875,0.0390625,0.0,0.00390625,0.001953125,0.0,0.001953125
2026-09-03T16:23:00.982190,0.560791015625,0.4200439453125,0.39874267578125,0.5916748046875,0.0546875,-0.03125,0.00390625,0.001953125,-0.001953125,0.0
2026-09-03T16:23:01.082012,0.560791015625,0.419921875,0.39886474609375,0.5916748046875,-0.0390625,0.0078125,-0.04296875,-0.00390625,0.001953125,0.005859375
2026-09-03T16:23:01.182643,0.5609130859375,0.41961669921875,0.39923095703125,0.591552734375,-0.0390625,0.0390625,0.00390625,0.001953125,0.0,0.001953125
2026-09-03T16:23:01.282469,0.56097412109375,0.41943359375,0.39935302734375,0.59149169921875,0.0078125,0.0,0.00390625,0.001953125,0.0,-0.001953125
2026-09-03T16:23:01.382166,0.56103515625,0.41937255859375,0.39947509765625,0.5914306640625,0.015625,0.0078125,0.00390625,0.0,0.0,0.0
2026-09-03T16:23:01.480123,0.56109619140625,0.4193115234375,0.3995361328125,0.59136962890625,0.015625,0.0546875,-0.03515625,0.0,0.0,-0.001953125
2026-09-03T16:23:01.580717,0.56109619140625,0.41925048828125,0.399658203125,0.59136962890625,-0.03125,-0.0390625,-0.02734375,0.0,0.001953125,0.001953125
2026-09-03T16:23:01.673727,0.5611572265625,0.419189453125,0.39971923828125,0.59130859375,0.0078125,-0.0390625,-0.02734375,0.0,-0.001953125,0.00390625
2026-09-03T16:23:02.008087,0.56121826171875,0.41900634765625,0.39990234375,0.5911865234375,-0.03125,-0.0078125,-0.02734375,-0.00390625,0.0,0.0
2026-09-03T16:23:02.101654,0.561279296875,0.41900634765625,0.4000244140625,0.59112548828125,-0.03125,0.0,-0.02734375,0.001953125,0.0,0.0
2026-09-03T16:23:02.201572,0.561279296875,0.41900634765625,0.40008544921875,0.591064453125,0.015625,-0.0078125,0.01953125,0.00390625,0.0,0.00390625
2026-09-03T16:23:02.302215,0.56134033203125,0.41900634765625,0.40008544921875,0.59100341796875,0.0234375,0.0390625,0.01171875,0.001953125,0.0,-0.001953125
2026-09-03T16:23:02.402222,0.56134033203125,0.4190673828125,0.40008544921875,0.59100341796875,-0.015625,-0.0390625,0.00390625,0.0,0.001953125,0.0
2026-09-03T16:23:02.502297,0.561279296875,0.4190673828125,0.40008544921875,0.5909423828125,-0.015625,0.0390625,-0.04296875,0.0,-0.001953125,0.001953125
2026-09-03T16:23:02.601971,0.56121826171875,0.4190673828125,0.40008544921875,0.58319091796875,-0.04296875,-0.0078125,0.00390625,-0.001953125,0.0,-0.001953125
2026-09-03T16:23:02.701988,0.5611572265625,0.4190673828125,0.40008544921875,0.59112548828125,-0.0078125,-0.0078125,0.00390625,0.001953125,0.001953125,0.001953125
2026-09-03T16:23:02.802548,0.56109619140625,0.419189453125,0.40008544921875,0.59112548828125,0.0078125,0.03125,0.00390625,0.001953125,0.0,0.005859375
2026-09-03T16:23:02.901569,0.56097412109375,0.4114990234375,0.4000244140625,0.5911865234375,0.0078125,-0.0078125,0.00390625,0.0,0.0,-0.001953125
2026-09-03T16:23:03.002128,0.5609130859375,0.41937255859375,0.39996337890625,0.59124755859375,0.0078125,0.0390625,-0.03515625,0.00390625,0.0,0.0
2026-09-03T16:23:03.102436,0.56085205078125,0.41943359375,0.39990234375,0.59124755859375,0.0078125,0.0390625,-0.02734375,-0.00390625,0.0,0.0
2026-09-03T16:23:03.203204,0.560791015625,0.4195556640625,0.39984130859375,0.59130859375,-0.02734375,-0.0078125,-0.02734375,-0.00390625,0.0,0.0
2026-09-03T16:23:03.738269,0.560791015625,0.4195556640625,0.39984130859375,0.59130859375,-0.02734375,-0.0078125,-0.02734375,0.0,0.0,0.0
2026-09-03T16:23:03.838648,0.560791015625,0.4195556640625,0.39984130859375,0.59130859375,-0.02734375,-0.0078125,-0.02734375,0.0,0.0,0.0
2026-09-03T16:23:03.938596,0.560791015625,0.4195556640625,0.39984130859375,0.59130859375,-0.02734375,-0.0078125,-0.02734375,0.0,0.0,0.0
2026-09-03T16:23:04.038598,0.560791015625,0.4195556640625,0.39984130859375,0.59130859375,-0.02734375,-0.0078125,-0.02734375,0.0,0.0,0.0
2026-09-03T16:23:04.138755,0.560791015625,0.4195556640625,0.39984130859375,0.59130859375,-0.02734375,-0.0078125,-0.02734375,0.0,0.0,0.0
2026-09-03T16:23:04.238804,0.560791015625,0.4195556640625,0.39984130859375,0.59130859375,-0.02734375,-0.0078125,-0.02734375,0.0,0.0,0.0
2026-09-03T16:23:04.338927,0.560791015625,0.4195556640625,0.39984130859375,0.59130859375,-0.02734375,-0.0078125,-0.02734375,0.0,0.0,0.0
2026-09-03T16:23:04.439273,0.560791015625,0.4195556640625,0.39984130859375,0.59130859375,-0.02734375,-0.0078125,-0.02734375,0.0,0.0,0.0
2026-09-03T16:23:04.539268,0.560791015625,0.4195556640625,0.39984130859375,0.59130859375,-0.02734375,-0.0078125,-0.02734375,0.0,0.0,0.0
2026-09-03T16:23:04.639276,0.560791015625,0.4195556640625,0.39984130859375,0.59130859375,-0.02734375,-0.0078125,-0.02734375,0.0,0.0,0.0
2026-09-03T16:23:04.739621,0.560791015625,0.4195556640625,0.39984130859375,0.59130859375,-0.02734375,-0.0078125,-0.02734375,0.0,0.0,0.0
2026-09-03T16:23:04.839543,0.560791015625,0.4195556640625,0.39984130859375,0.59130859375,-0.02734375,-0.0078125,-0.02734375,0.0,0.0,0.0
2026-09-03T16:23:04.939717,0.560791015625,0.4195556640625,0.39984130859375,0.59130859375,-0.02734375,-0.0078125,-0.02734375,0.0,0.0,0.0
2026-09-03T16:23:05.039780,0.560791015625,0.4195556640625,0.39984130859375,0.59130859375,-0.02734375,-0.0078125,-0.02734375,0.0,0.0,0.0
2026-09-03T16:23:05.140002,0.560791015625,0.4195556640625,0.39984130859375,0.59130859375,-0.02734375,-0.0078125,-0.02734375,0.0,0.0,0.0
2026-09-03T16:23:05.240022,0.560791015625,0.4195556640625,0.39984130859375,0.59130859375,-0.02734375,-0.0078125,-0.02734375,0.0,0.0,0.0
2026-09-03T16:23:05.340093,0.560791015625,0.4195556640625,0.39984130859375,0.59130859375,-0.02734375,-0.0078125,-0.02734375,0.0,0.0,0.0
2026-09-03T16:23:05.440450,0.560791015625,0.4195556640625,0.39984130859375,0.59130859375,-0.02734375,-0.0078125,-0.02734375,0.0,0.0,0.0
2026-09-03T16:23:05.540315,0.560791015625,0.4195556640625,0.39984130859375,0.59130859375,-0.02734375,-0.0078125,-0.02734375,0.0,0.0,0.0
2026-09-03T16:23:07.505854,0.48577880859375,0.50909423828125,0.49053955078125,0.5140380859375,-0.32421875,6.078125,0.09765625,0.001953125,0.0,-0.005859375
2026-09-03T16:23:07.605682,0.485595703125,0.509033203125,0.4906005859375,0.51422119140625,-0.171875,3.765625,0.05859375,0.00390625,0.001953125,0.00390625
2026-09-03T16:23:07.704903,0.4853515625,0.50897216796875,0.49066162109375,0.514404296875,-0.09375,2.2265625,0.03515625,0.0,0.0,0.001953125
2026-09-03T16:23:07.805693,0.485107421875,0.50885009765625,0.49072265625,0.5068359375,-0.08203125,1.2109375,0.02734375,-0.00390625,0.0,0.001953125
2026-09-03T16:23:07.906070,0.48492431640625,0.5087890625,0.4908447265625,0.51483154296875,-0.05078125,0.65625,0.01171875,0.001953125,0.0,0.001953125
2026-09-03T16:23:08.005860,0.4847412109375,0.5087890625,0.49090576171875,0.51495361328125,0.0,0.34375,0.01171875,0.0,0.0,0.001953125
2026-09-03T16:23:08.106233,0.484619140625,0.50872802734375,0.490966796875,0.51507568359375,-0.02734375,0.1796875,0.00390625,0.0,0.001953125,0.0
2026-09-03T16:23:08.207328,0.48455810546875,0.50091552734375,0.490966796875,0.51519775390625,-0.01953125,0.0859375,0.00390625,0.0,0.0,-0.00390625
2026-09-03T16:23:08.306896,0.484375,0.50872802734375,0.490966796875,0.5152587890625,-0.13671875,0.0390625,-0.03515625,-0.001953125,0.001953125,-0.001953125
2026-09-03T16:23:08.405164,0.48419189453125,0.5087890625,0.49090576171875,0.51544189453125,-0.265625,0.0546875,-0.03515625,0.0,0.0,-0.00390625
2026-09-03T16:23:08.506403,0.48388671875,0.5089111328125,0.49078369140625,0.5157470703125,0.09765625,0.09765625,0.00390625,0.0,-0.005859375,0.001953125
2026-09-03T16:23:08.606266,0.483642578125,0.50909423828125,0.49053955078125,0.51605224609375,0.34765625,-0.1015625,0.04296875,0.0,0.0,0.00390625
2026-09-03T16:23:08.707141,0.48345947265625,0.50921630859375,0.49041748046875,0.51617431640625,-0.58203125,-0.0234375,-0.00390625,0.001953125,0.001953125,-0.005859375
2026-09-03T16:23:08.806803,0.4833984375,0.5091552734375,0.490478515625,0.51629638671875,-0.15234375,0.12890625,-0.00390625,0.0,-0.001953125,0.0
2026-09-03T16:23:08.906793,0.48345947265625,0.509033203125,0.49053955078125,0.51629638671875,0.1015625,0.03125,-0.00390625,0.001953125,0.001953125,0.001953125
2026-09-03T16:23:09.006827,0.48345947265625,0.5089111328125,0.49066162109375,0.5162353515625,0.0859375,-0.125,0.03515625,0.0,-0.001953125,0.0
2026-09-03T16:23:09.106813,0.48345947265625,0.5087890625,0.49078369140625,0.51629638671875,-0.015625,0.015625,-0.01171875,0.001953125,0.0,0.0
2026-09-03T16:23:09.328887,0.4835205078125,0.50848388671875,0.4910888671875,0.5162353515625,0.0078125,0.03125,-0.05078125,-0.00390625,0.0,-0.001953125
2026-09-03T16:23:09.420666,0.4835205078125,0.50836181640625,0.4912109375,0.51629638671875,0.03125,-0.0390625,-0.00390625,0.0,0.0,-0.251953125
2026-09-03T16:23:09.527094,0.48358154296875,0.50823974609375,0.4913330078125,0.5162353515625,-0.015625,0.0078125,-0.00390625,0.00390625,0.0,0.0
2026-09-03T16:23:09.620667,0.48358154296875,0.5081787109375,0.491455078125,0.51611328125,-0.03515625,0.03125,-0.01171875,0.001953125,0.0,0.0
2026-09-03T16:23:09.726933,0.483642578125,0.508056640625,0.49151611328125,0.51617431640625,0.0390625,-0.0078125,-0.01171875,0.001953125,0.001953125,-0.001953125
2026-09-03T16:23:09.825301,0.483642578125,0.50799560546875,0.4915771484375,0.51617431640625,-0.0078125,0.0390625,-0.04296875,0.001953125,-0.00390625,-0.001953125
2026-09-03T16:23:09.925546,0.483642578125,0.5079345703125,0.49163818359375,0.51611328125,-0.04296875,0.03125,0.00390625,0.001953125,0.0,-0.001953125
2026-09-03T16:23:10.025467,0.48370361328125,0.5079345703125,0.49163818359375,0.51605224609375,0.0078125,-0.015625,0.00390625,0.001953125,0.0,0.0
2026-09-03T16:23:10.126883,0.48370361328125,0.5079345703125,0.49163818359375,0.51605224609375,0.0390625,-0.0078125,0.00390625,0.001953125,0.0,0.001953125
2026-09-03T16:23:10.226726,0.4837646484375,0.50787353515625,0.49163818359375,0.51605224609375,-0.0078125,0.03125,-0.04296875,0.0,0.0,0.001953125
2026-09-03T16:23:10.327081,0.4837646484375,0.50787353515625,0.49163818359375,0.5159912109375,-0.04296875,-0.0078125,0.00390625,0.0,0.0,0.001953125
2026-09-03T16:23:10.425241,0.4837646484375,0.50787353515625,0.49169921875,0.5159912109375,0.0390625,-0.0078125,-0.00390625,0.001953125,0.001953125,0.0
2026-09-03T16:23:10.525948,0.48382568359375,0.50787353515625,0.49169921875,0.5159912109375,0.03125,-0.0078125,-0.00390625,-0.00390625,0.0,0.00390625
2026-09-03T16:23:10.624151,0.48382568359375,0.50787353515625,0.49169921875,0.5159912109375,-0.04296875,-0.0078125,-0.00390625,0.0,-0.001953125,0.0
2026-09-03T16:23:10.717002,0.4837646484375,0.50787353515625,0.49169921875,0.5159912109375,0.0,0.03125,-0.00390625,0.0,0.001953125,-0.00390625
2026-09-03T16:23:10.817508,0.4837646484375,0.50787353515625,0.49176025390625,0.5159912109375,0.0,-0.046875,-0.00390625,0.0,0.0,-0.001953125
2026-09-03T16:23:10.925049,0.4837646484375,0.5078125,0.49176025390625,0.5159912109375,-0.0078125,-0.0078125,-0.00390625,0.0,-0.001953125,-0.001953125
2026-09-03T16:23:11.022257,0.4837646484375,0.50787353515625,0.49176025390625,0.51593017578125,-0.0078125,-0.0078125,-0.00390625,0.001953125,0.001953125,0.001953125
2026-09-03T16:23:11.121458,0.48382568359375,0.5078125,0.4918212890625,0.51593017578125,0.0390625,0.03125,-0.05078125,-0.001953125,0.0,0.001953125
2026-09-03T16:23:11.224016,0.48382568359375,0.50775146484375,0.4918212890625,0.51593017578125,-0.0078125,-0.0546875,-0.00390625,0.001953125,0.0,0.0
2026-09-03T16:23:11.324061,0.48382568359375,0.5078125,0.4918212890625,0.51593017578125,-0.04296875,0.03125,-0.03515625,0.0,0.0,0.0
2026-09-03T16:23:11.423927,0.48382568359375,0.50775146484375,0.4918212890625,0.51593017578125,0.0,0.0234375,0.00390625,-0.00390625,-0.001953125,0.0
2026-09-03T16:23:11.524459,0.48382568359375,0.5078125,0.4918212890625,0.51593017578125,0.0,-0.0078125,0.00390625,0.0,0.0,0.0
2026-09-03T16:23:11.624096,0.4837646484375,0.5078125,0.4918212890625,0.51593017578125,0.0390625,0.0390625,-0.00390625,0.0,0.0,-0.00390625
2026-09-03T16:23:11.724683,0.4837646484375,0.50787353515625,0.49176025390625,0.51593017578125,-0.03515625,0.0,-0.00390625,0.001953125,0.001953125,0.0
2026-09-03T16:23:11.824457,0.4837646484375,0.50787353515625,0.49176025390625,0.51593017578125,0.0,0.0,-0.00390625,0.001953125,-0.001953125,0.0
2026-09-03T16:23:11.924495,0.4837646484375,0.5079345703125,0.49176025390625,0.51593017578125,0.0390625,0.0,-0.03515625,-0.00390625,0.0,0.001953125
2026-09-03T16:23:12.024701,0.4837646484375,0.5079345703125,0.49176025390625,0.51593017578125,0.0,0.046875,0.00390625,-0.001953125,0.001953125,-0.001953125
2026-09-03T16:23:12.125270,0.4837646484375,0.5079345703125,0.49169921875,0.51593017578125,0.0390625,0.0390625,-0.03515625,0.001953125,0.0,0.001953125
2026-09-03T16:23:12.234601,0.48382568359375,0.50799560546875,0.49169921875,0.51580810546875,0.0,0.0,0.05078125,0.001953125,0.001953125,0.001953125
2026-09-03T16:23:12.333073,0.48388671875,0.50799560546875,0.49163818359375,0.5157470703125,-0.0078125,0.0,-0.02734375,0.001953125,0.0,0.0
2026-09-03T16:23:12.433267,0.48394775390625,0.508056640625,0.49163818359375,0.5157470703125,-0.04296875,0.0,-0.02734375,0.00390625,0.0,0.001953125
2026-09-03T16:23:12.530965,0.48394775390625,0.508056640625,0.49163818359375,0.5157470703125,0.0,0.03125,0.01171875,0.0,0.0,0.0
2026-09-03T16:23:12.625209,0.48394775390625,0.50811767578125,0.4915771484375,0.51568603515625,0.0,-0.0078125,0.00390625,-0.001953125,0.0,0.0
2026-09-03T16:23:12.730748,0.48394775390625,0.50811767578125,0.4915771484375,0.51568603515625,0.0,0.03125,0.00390625,0.0,-0.001953125,0.0
2026-09-03T16:23:12.830605,0.48394775390625,0.50811767578125,0.4915771484375,0.5157470703125,0.0,0.03125,-0.02734375,0.0,0.001953125,-0.00390625
2026-09-03T16:23:12.930732,0.48394775390625,0.50811767578125,0.49151611328125,0.5157470703125,0.0,-0.0078125,0.01171875,0.0,0.0,0.0
2026-09-03T16:23:13.031038,0.48394775390625,0.5081787109375,0.49151611328125,0.5157470703125,0.0,-0.0078125,0.01171875,0.001953125,-0.001953125,0.001953125
2026-09-03T16:23:13.127371,0.48394775390625,0.5081787109375,0.491455078125,0.5157470703125,0.0,-0.0078125,-0.00390625,0.001953125,0.0,-0.001953125
2026-09-03T16:23:13.223466,0.48388671875,0.5081787109375,0.49151611328125,0.5157470703125,0.0390625,-0.0078125,-0.01171875,0.00390625,-0.001953125,0.0
2026-09-03T16:23:13.331304,0.48388671875,0.50811767578125,0.4915771484375,0.51580810546875,0.0390625,0.0390625,-0.01171875,0.00390625,-0.251953125,0.005859375
2026-09-03T16:23:13.430585,0.48382568359375,0.508056640625,0.49163818359375,0.515869140625,0.03125,0.0,-0.01171875,-0.25390625,0.0,0.001953125
2026-09-03T16:23:13.530269,0.48382568359375,0.5079345703125,0.49176025390625,0.515869140625,0.015625,0.0,-0.01171875,0.0,0.0,0.0
2026-09-03T16:23:13.631347,0.48388671875,0.5078125,0.49188232421875,0.51580810546875,0.03125,0.0,0.02734375,0.0,0.0,-0.001953125
2026-09-03T16:23:13.729021,0.48406982421875,0.507568359375,0.49212646484375,0.515625,0.0859375,0.0,-0.01953125,0.0,0.001953125,0.001953125
2026-09-03T16:23:13.958646,0.48455810546875,0.5068359375,0.492919921875,0.51513671875,0.171875,-0.03125,0.01171875,0.001953125,0.0,0.0
2026-09-03T16:23:14.047438,0.4852294921875,0.506103515625,0.4937744140625,0.51434326171875,0.1796875,0.015625,0.00390625,0.001953125,0.001953125,0.0
2026-09-03T16:23:14.158643,0.4854736328125,0.50592041015625,0.4940185546875,0.51409912109375,0.1953125,0.046875,0.00390625,0.001953125,0.001953125,0.00390625
2026-09-03T16:23:14.250319,0.486083984375,0.50543212890625,0.49462890625,0.51336669921875,0.15234375,-0.03125,0.00390625,0.00390625,0.0,0.001953125
2026-09-03T16:23:14.368644,0.48626708984375,0.50531005859375,0.494873046875,0.51312255859375,0.16015625,-0.015625,0.00390625,0.0,0.001953125,-0.001953125
2026-09-03T16:23:14.459248,0.48687744140625,0.5048828125,0.4954833984375,0.51239013671875,0.14453125,0.03125,0.01171875,0.001953125,0.005859375,0.009765625
2026-09-03T16:23:14.559234,0.48748779296875,0.50439453125,0.4962158203125,0.5115966796875,0.45703125,-0.0546875,0.01171875,0.005859375,0.005859375,0.017578125
2026-09-03T16:23:14.658547,0.488037109375,0.5040283203125,0.4969482421875,0.5107421875,0.33984375,-0.0703125,-0.00390625,0.005859375,0.009765625,0.00390625
2026-09-03T16:23:14.758080,0.48846435546875,0.50384521484375,0.4974365234375,0.510009765625,0.234375,0.0390625,-0.00390625,0.013671875,0.0078125,0.001953125
2026-09-03T16:23:14.846248,0.4888916015625,0.50396728515625,0.49774169921875,0.5091552734375,0.1796875,0.0,0.00390625,0.013671875,0.009765625,0.0
2026-09-03T16:23:15.051984,0.48919677734375,0.50445556640625,0.49847412109375,0.50762939453125,-0.07421875,0.1015625,-0.109375,0.00390625,0.02734375,0.005859375
2026-09-03T16:23:15.144183,0.48974609375,0.5045166015625,0.50042724609375,0.50518798828125,-0.06640625,0.0625,-0.1328125,0.01171875,0.03125,0.0078125
2026-09-03T16:23:15.244880,0.48992919921875,0.50457763671875,0.501220703125,0.504150390625,-0.00390625,-0.0625,-0.0546875,0.0078125,0.0390625,0.00390625
2026-09-03T16:23:15.344839,0.49017333984375,0.50494384765625,0.50286865234375,0.501953125,0.02734375,-0.0859375,-0.0234375,0.005859375,0.05078125,0.00390625
2026-09-03T16:23:15.445026,0.4901123046875,0.50567626953125,0.504638671875,0.4993896484375,0.05078125,0.11328125,-0.03125,0.02734375,0.0625,0.00390625
2026-09-03T16:23:15.544420,0.4903564453125,0.50701904296875,0.50640869140625,0.49603271484375,0.02734375,0.12890625,-0.07421875,0.02734375,0.072265625,0.005859375
2026-09-03T16:23:15.644522,0.490234375,0.50860595703125,0.508544921875,0.4923095703125,0.1171875,0.12109375,-0.2734375,0.01953125,0.08984375,0.009765625
2026-09-03T16:23:15.744083,0.4910888671875,0.5096435546875,0.51190185546875,0.48681640625,0.109375,-0.078125,-0.203125,0.0390625,0.107421875,0.021484375
2026-09-03T16:23:15.844418,0.49261474609375,0.51116943359375,0.515625,0.479736328125,-0.03125,0.17578125,-0.4296875,-0.03125,0.123046875,0.00390625
2026-09-03T16:23:15.944193,0.4906005859375,0.512451171875,0.5203857421875,0.4752197265625,-0.69921875,0.83203125,-0.7734375,-0.044921875,0.140625,0.07421875
2026-09-03T16:23:16.044454,0.48828125,0.51312255859375,0.52667236328125,0.47003173828125,-0.796875,1.0390625,-0.55078125,-0.01171875,0.16796875,0.109375
2026-09-03T16:23:16.149386,0.48712158203125,0.5140380859375,0.53363037109375,0.4622802734375,-0.69921875,0.01953125,-0.359375,-0.044921875,0.19140625,0.0859375
2026-09-03T16:23:16.243765,0.48358154296875,0.51513671875,0.54547119140625,0.4508056640625,-0.6015625,-0.6953125,0.3359375,0.0,0.1875,0.107421875
2026-09-03T16:23:16.349131,0.48284912109375,0.5164794921875,0.54852294921875,0.4464111328125,-0.421875,-0.93359375,0.3203125,0.02734375,0.208984375,0.083984375
2026-09-03T16:23:16.448030,0.4813232421875,0.5213623046875,0.557373046875,0.43109130859375,-0.3828125,-0.38671875,-0.26171875,0.044921875,0.22265625,0.09375
2026-09-03T16:23:16.549656,0.4798583984375,0.525390625,0.56329345703125,-1.58001708984375,-0.5390625,-0.5703125,0.15625,0.046875,0.2265625,0.099609375
2026-09-03T16:23:16.648193,0.478271484375,0.5286865234375,0.569580078125,0.4090576171875,-0.40234375,0.06640625,-0.88671875,-0.021484375,0.21875,0.12109375
2026-09-03T16:23:16.749749,0.47564697265625,0.52972412109375,0.57781982421875,0.3990478515625,-0.88671875,0.04296875,-1.40234375,-0.0390625,0.259765625,0.134765625
2026-09-03T16:23:16.850139,0.47161865234375,-1.46917724609375,0.58740234375,0.38824462890625,0.21484375,0.2265625,-1.02734375,-0.041015625,0.296875,0.125
2026-09-03T16:23:16.949199,0.46624755859375,0.53277587890625,0.5972900390625,0.3768310546875,-0.1328125,-0.1796875,0.03125,0.013671875,0.28125,0.10546875
2026-09-03T16:23:17.049502,0.466064453125,-1.4630126953125,0.603515625,0.36077880859375,-0.28125,-0.0859375,0.3125,0.041015625,0.271484375,0.111328125
2026-09-03T16:23:17.150442,0.46368408203125,0.54107666015625,0.60986328125,0.346923828125,-0.23828125,-0.4375,-0.4453125,0.041015625,0.296875,0.115234375
2026-09-03T16:23:17.249986,0.45965576171875,0.545166015625,0.61688232421875,0.3331298828125,-0.23046875,-0.0234375,-0.7890625,0.0390625,0.30859375,0.09375
2026-09-03T16:23:17.450207,0.44635009765625,0.55169677734375,0.63177490234375,0.31182861328125,-0.41796875,0.78125,-1.45703125,-0.11328125,0.30859375,-0.001953125
2026-09-03T16:23:17.550910,0.4271240234375,0.55352783203125,0.64111328125,0.30560302734375,-0.79296875,0.0078125,-1.26953125,-0.0546875,0.357421875,-0.017578125
2026-09-03T16:23:17.650404,0.42291259765625,0.55853271484375,0.6490478515625,0.2965087890625,-0.5390625,0.6875,0.484375,0.02734375,0.376953125,0.0078125
2026-09-03T16:23:17.750568,0.4127197265625,0.56610107421875,0.65447998046875,0.2843017578125,-1.0625,-0.32421875,0.68359375,0.1328125,0.3203125,0.052734375
2026-09-03T16:23:17.850183,0.406005859375,0.57550048828125,0.65625,0.270751953125,-1.18359375,-0.26953125,0.1328125,0.1484375,0.310546875,0.015625
2026-09-03T16:23:17.955701,0.39837646484375,0.58453369140625,0.6580810546875,0.258056640625,-0.80078125,-0.03125,-1.56640625,0.07421875,0.34375,0.00390625
2026-09-03T16:23:18.049960,0.38848876953125,0.59149169921875,0.6622314453125,0.2462158203125,-1.046875,0.28125,-1.98046875,0.01953125,0.353515625,0.01171875
2026-09-03T16:23:18.156539,0.37738037109375,0.596435546875,0.668212890625,0.2352294921875,-1.15234375,0.17578125,-1.94921875,-0.0625,0.353515625,0.01171875
2026-09-03T16:23:18.254905,0.365234375,0.5992431640625,0.67578125,0.22552490234375,-1.16015625,0.13671875,-1.015625,-0.30078125,0.365234375,0.009765625
2026-09-03T16:23:18.349240,0.3531494140625,0.60247802734375,0.6827392578125,0.21478271484375,-0.90625,-0.3984375,0.125,0.015625,0.3671875,0.017578125
2026-09-03T16:23:18.456778,0.3363037109375,0.61077880859375,0.689208984375,0.19696044921875,-0.66796875,-0.69921875,0.078125,0.07421875,0.34375,0.015625
2026-09-03T16:23:18.554328,0.3311767578125,0.61444091796875,0.69024658203125,0.19061279296875,-0.98046875,-0.421875,-0.00390625,0.109375,0.087890625,0.015625
2026-09-03T16:23:18.655815,0.3209228515625,0.62164306640625,0.69195556640625,0.17816162109375,-1.08203125,0.3125,-1.20703125,0.044921875,0.33203125,0.017578125
2026-09-03T16:23:18.754583,0.31011962890625,0.62701416015625,0.69488525390625,0.166748046875,-0.7890625,-0.0625,-0.9453125,0.046875,0.33203125,0.01171875
2026-09-03T16:23:18.855732,0.29925537109375,0.6318359375,0.6978759765625,0.15533447265625,-0.7265625,-0.0234375,-1.0078125,0.025390625,0.337890625,0.01171875
2026-09-03T16:23:18.955318,0.2882080078125,0.636474609375,0.70074462890625,0.14422607421875,-0.55859375,-0.20703125,-0.42578125,0.03515625,0.32421875,0.01171875
2026-09-03T16:23:19.162522,0.2626953125,0.64727783203125,0.70587158203125,0.11749267578125,-0.390625,0.30078125,-0.76953125,0.04296875,0.30078125,0.021484375
2026-09-03T16:23:19.257577,0.25213623046875,0.65032958984375,0.70843505859375,0.10772705078125,-0.51953125,0.0703125,-0.96875,0.0078125,0.3046875,0.0
2026-09-03T16:23:19.357950,0.2423095703125,0.6533203125,0.710693359375,0.09674072265625,-0.51953125,-0.12109375,-0.078125,0.0234375,0.3046875,0.033203125
2026-09-03T16:23:19.458202,0.23284912109375,0.65576171875,0.7130126953125,0.08612060546875,0.0,0.078125,-0.69140625,0.009765625,0.294921875,0.03515625
2026-09-03T16:23:19.558483,0.22418212890625,0.66015625,0.71270751953125,0.07733154296875,-0.11328125,-0.11328125,-0.53125,0.0234375,0.259765625,0.013671875
2026-09-03T16:23:19.657455,0.2154541015625,0.6634521484375,0.71319580078125,0.069091796875,-0.4140625,-0.10546875,-0.53125,0.017578125,0.251953125,-0.013671875
2026-09-03T16:23:19.758982,0.20684814453125,0.6658935546875,0.70648193359375,0.060302734375,-0.94140625,-0.3046875,-0.35546875,-0.001953125,0.26171875,0.01953125
2026-09-03T16:23:19.858338,0.1993408203125,0.66845703125,0.71466064453125,-1.94793701171875,-0.98828125,0.12109375,0.296875,0.013671875,0.236328125,0.025390625
2026-09-03T16:23:19.957823,0.1929931640625,0.6717529296875,0.71380615234375,0.0445556640625,-0.4140625,0.3984375,0.19921875,0.052734375,0.1953125,0.0234375
2026-09-03T16:23:20.058244,0.1864013671875,0.67462158203125,0.7132568359375,0.037353515625,-0.328125,-0.0234375,-0.35546875,0.04296875,0.197265625,0.005859375
2026-09-03T16:23:20.157640,0.17950439453125,0.67877197265625,0.71142578125,0.0303955078125,-0.3671875,-0.16796875,-0.68359375,0.033203125,0.205078125,0.01171875
2026-09-03T16:23:20.258782,0.17291259765625,0.6826171875,0.7095947265625,0.02423095703125,-0.51171875,-0.0625,-0.60546875,0.01171875,0.189453125,0.0078125
2026-09-03T16:23:20.358998,0.1646728515625,0.6923828125,0.7021484375,0.0218505859375,0.0390625,-0.0859375,0.27734375,0.00390625,0.1796875,0.00390625
2026-09-03T16:23:20.458157,0.156494140625,0.70068359375,0.69580078125,0.0198974609375,0.28515625,0.27734375,0.51953125,-0.0234375,0.169921875,0.015625
2026-09-03T16:23:20.558744,0.1502685546875,0.703369140625,0.694580078125,0.01519775390625,0.03515625,0.015625,0.5,-0.0078125,0.16796875,0.01171875
2026-09-03T16:23:20.659035,0.1453857421875,0.70404052734375,0.695068359375,0.0096435546875,0.04296875,-0.20703125,0.46875,0.015625,0.150390625,0.005859375
2026-09-03T16:23:20.754256,0.14306640625,0.7044677734375,0.69512939453125,0.00714111328125,-0.15625,-0.28515625,0.73828125,0.025390625,0.1328125,0.015625
2026-09-03T16:23:20.955148,-0.13385009765625,-0.70294189453125,-0.69854736328125,0.00067138671875,-0.15625,0.421875,-0.62109375,0.025390625,0.10546875,0.00390625
2026-09-03T16:23:21.157589,-0.12646484375,-0.70013427734375,-0.69488525390625,0.00701904296875,-0.01953125,0.046875,-0.06640625,-0.033203125,0.095703125,0.00390625
2026-09-03T16:23:21.687119,-0.12646484375,-0.70013427734375,-0.69488525390625,0.00701904296875,-0.01953125,0.046875,-0.06640625,-0.033203125,0.095703125,0.00390625
2026-09-03T16:23:21.787401,-0.12646484375,-0.70013427734375,-0.69488525390625,0.00701904296875,-0.01953125,0.046875,-0.06640625,-0.033203125,0.095703125,0.00390625
2026-09-03T16:23:21.887366,-0.12646484375,-0.70013427734375,-0.69488525390625,0.00701904296875,-0.01953125,0.046875,-0.06640625,-0.033203125,0.095703125,0.00390625
2026-09-03T16:23:21.987730,-0.12646484375,-0.70013427734375,-0.69488525390625,0.00701904296875,-0.01953125,0.046875,-0.06640625,-0.033203125,0.095703125,0.00390625
2026-09-03T16:23:22.087657,-0.12646484375,-0.70013427734375,-0.69488525390625,0.00701904296875,-0.01953125,0.046875,-0.06640625,-0.033203125,0.095703125,0.00390625
2026-09-03T16:23:22.187877,-0.12646484375,-0.70013427734375,-0.69488525390625,0.00701904296875,-0.01953125,0.046875,-0.06640625,-0.033203125,0.095703125,0.00390625
2026-09-03T16:23:22.287944,-0.12646484375,-0.70013427734375,-0.69488525390625,0.00701904296875,-0.01953125,0.046875,-0.06640625,-0.033203125,0.095703125,0.00390625
2026-09-03T16:23:22.387924,-0.12646484375,-0.70013427734375,-0.69488525390625,0.00701904296875,-0.01953125,0.046875,-0.06640625,-0.033203125,0.095703125,0.00390625
2026-09-03T16:23:22.488164,-0.12646484375,-0.70013427734375,-0.69488525390625,0.00701904296875,-0.01953125,0.046875,-0.06640625,-0.033203125,0.095703125,0.00390625
2026-09-03T16:23:22.588480,-0.12646484375,-0.70013427734375,-0.69488525390625,0.00701904296875,-0.01953125,0.046875,-0.06640625,-0.033203125,0.095703125,0.00390625
2026-09-03T16:23:22.688226,-0.12646484375,-0.70013427734375,-0.69488525390625,0.00701904296875,-0.01953125,0.046875,-0.06640625,-0.033203125,0.095703125,0.00390625
2026-09-03T16:23:22.788567,-0.12646484375,-0.70013427734375,-0.69488525390625,0.00701904296875,-0.01953125,0.046875,-0.06640625,-0.033203125,0.095703125,0.00390625
2026-09-03T16:23:22.888482,-0.12646484375,-0.70013427734375,-0.69488525390625,0.00701904296875,-0.01953125,0.046875,-0.06640625,-0.033203125,0.095703125,0.00390625
2026-09-03T16:23:22.988619,-0.12646484375,-0.70013427734375,-0.69488525390625,0.00701904296875,-0.01953125,0.046875,-0.06640625,-0.033203125,0.095703125,0.00390625
2026-09-03T16:23:23.088543,-0.12646484375,-0.70013427734375,-0.69488525390625,0.00701904296875,-0.01953125,0.046875,-0.06640625,-0.033203125,0.095703125,0.00390625
2026-09-03T16:23:23.188835,-0.12646484375,-0.70013427734375,-0.69488525390625,0.00701904296875,-0.01953125,0.046875,-0.06640625,-0.033203125,0.095703125,0.00390625
2026-09-03T16:23:23.289049,-0.12646484375,-0.70013427734375,-0.69488525390625,0.00701904296875,-0.01953125,0.046875,-0.06640625,-0.033203125,0.095703125,0.00390625
2026-09-03T16:23:23.389026,-0.12646484375,-0.70013427734375,-0.69488525390625,0.00701904296875,-0.01953125,0.046875,-0.06640625,-0.033203125,0.095703125,0.00390625
2026-09-03T16:23:23.492038,-0.12646484375,-0.70013427734375,-0.69488525390625,0.00701904296875,-0.01953125,0.046875,-0.06640625,-0.033203125,0.095703125,0.00390625
2026-09-03T16:23:25.565588,0.50244140625,0.49871826171875,0.49725341796875,0.50152587890625,0.40625,9.18359375,0.21484375,0.037109375,-0.04296875,0.005859375
2026-09-03T16:23:25.665920,0.50390625,0.49908447265625,0.49493408203125,0.50201416015625,-0.71484375,9.37109375,-0.1015625,0.0234375,-0.033203125,-0.0234375
2026-09-03T16:23:25.765592,0.50341796875,0.48809814453125,0.50408935546875,0.504150390625,0.0078125,9.24609375,-0.22265625,-0.017578125,-0.029296875,0.017578125
2026-09-03T16:23:25.866793,0.50408935546875,0.4862060546875,0.50482177734375,0.504638671875,0.49609375,8.75,0.12109375,0.037109375,-0.0234375,0.009765625
2026-09-03T16:23:25.965366,0.50567626953125,0.4857177734375,0.50433349609375,0.50396728515625,1.140625,7.921875,-0.4921875,0.015625,-0.009765625,0.017578125
2026-09-03T16:23:26.180703,0.5068359375,0.48541259765625,0.50408935546875,0.50335693359375,0.3125,8.21875,-0.29296875,-0.0078125,0.00390625,-0.00390625
2026-09-03T16:23:26.279546,0.50604248046875,0.48553466796875,0.50439453125,0.5037841796875,0.19140625,6.6484375,0.12890625,0.0390625,0.009765625,-0.033203125
2026-09-03T16:23:26.379872,0.5059814453125,0.48602294921875,0.50439453125,0.5032958984375,0.09765625,7.37890625,-0.4375,-0.001953125,0.0078125,-0.0078125
2026-09-03T16:23:26.480613,-1.49420166015625,0.4859619140625,0.5048828125,0.5030517578125,0.1875,5.9140625,0.09765625,0.025390625,0.005859375,0.0078125
2026-09-03T16:23:26.579822,0.5059814453125,0.486572265625,0.50457763671875,0.50262451171875,0.48828125,5.6484375,0.10546875,-0.015625,0.015625,0.013671875
2026-09-03T16:23:26.680455,-1.49395751953125,0.48663330078125,0.5050048828125,0.5020751953125,0.15625,6.1171875,-0.60546875,0.013671875,0.017578125,0.001953125
2026-09-03T16:23:26.780424,0.505859375,0.48736572265625,0.5052490234375,0.5013427734375,0.33203125,5.03125,-0.2890625,0.0078125,0.013671875,-0.033203125
2026-09-03T16:23:26.880424,0.5047607421875,0.48834228515625,0.50506591796875,0.50164794921875,0.36328125,5.25390625,-0.734375,-0.013671875,0.015625,-0.0078125
2026-09-03T16:23:26.980638,0.504150390625,0.48858642578125,0.50567626953125,0.5013427734375,0.01953125,4.8359375,0.30859375,0.03125,0.01171875,-0.005859375
2026-09-03T16:23:27.080125,0.5042724609375,0.489013671875,0.50592041015625,0.50067138671875,-0.07421875,4.73046875,-0.09765625,-0.046875,0.01171875,-0.001953125
2026-09-03T16:23:27.180591,0.50341796875,0.48809814453125,0.5072021484375,0.5010986328125,-0.05078125,4.6796875,-1.140625,-0.04296875,0.0078125,-0.001953125
2026-09-03T16:23:27.280603,0.5029296875,0.4866943359375,0.5086669921875,0.50140380859375,0.27734375,3.8984375,0.078125,-0.021484375,-0.001953125,0.005859375
2026-09-03T16:23:27.611146,0.50323486328125,0.48712158203125,0.5081787109375,0.501220703125,0.1796875,3.60546875,-0.97265625,0.033203125,-0.009765625,-0.037109375
2026-09-03T16:23:27.696826,0.50347900390625,0.48663330078125,0.50775146484375,0.5018310546875,-0.12890625,2.95703125,-0.23046875,-0.03515625,-0.0078125,0.037109375
2026-09-03T16:23:27.797730,0.50311279296875,0.48486328125,0.50897216796875,0.502685546875,0.1328125,2.02734375,0.21484375,-0.029296875,-0.005859375,-0.013671875
2026-09-03T16:23:27.897205,0.5035400390625,0.48419189453125,0.50927734375,0.50262451171875,-0.2578125,1.80078125,0.28515625,-0.005859375,-0.0078125,0.01171875
2026-09-03T16:23:27.997750,0.5035400390625,0.48358154296875,0.50970458984375,0.50286865234375,-0.02734375,0.89453125,1.5390625,0.0,-0.0078125,-0.01171875
2026-09-03T16:23:28.097287,0.50421142578125,0.48443603515625,0.50811767578125,0.50286865234375,-0.3125,2.69140625,-0.4453125,0.029296875,-0.27734375,-0.03125
2026-09-03T16:23:28.197395,0.50311279296875,0.4840087890625,0.50775146484375,0.5047607421875,-0.2109375,3.45703125,-0.21484375,-0.037109375,-0.015625,-0.021484375
2026-09-03T16:23:28.297300,0.501953125,0.48284912109375,0.5081787109375,0.506591796875,-0.65625,1.92578125,0.05859375,-0.04296875,-0.009765625,0.017578125
2026-09-03T16:23:28.396622,0.5009765625,0.48193359375,0.5081787109375,0.50848388671875,-0.28515625,0.5703125,0.06640625,-0.0390625,-0.0234375,-0.0390625
2026-09-03T16:23:28.498015,0.50079345703125,0.482177734375,0.50665283203125,0.5098876953125,-0.66015625,0.453125,0.765625,0.017578125,-0.025390625,-0.041015625
2026-09-03T16:23:28.596796,0.50238037109375,0.48486328125,0.50225830078125,0.5101318359375,-1.2109375,2.3046875,0.8515625,0.0703125,-0.03125,-0.12890625
2026-09-03T16:23:28.696897,0.50439453125,0.4871826171875,0.497802734375,0.51031494140625,-1.69140625,2.625,-0.078125,0.025390625,-0.044921875,-0.029296875
2026-09-03T16:23:28.796695,0.5047607421875,0.48590087890625,0.49713134765625,0.5118408203125,-1.125,2.4765625,-0.125,-0.0390625,-0.044921875,0.078125
2026-09-03T16:23:28.896648,0.5054931640625,0.4837646484375,0.4971923828125,0.5130615234375,-0.96484375,0.765625,-0.15625,-0.0234375,-0.041015625,-0.00390625
2026-09-03T16:23:28.996788,0.507080078125,0.48175048828125,0.49725341796875,0.51336669921875,-0.734375,0.671875,0.94140625,0.0,-0.037109375,0.02734375
2026-09-03T16:23:29.097320,0.50897216796875,0.48016357421875,0.49658203125,0.513671875,-0.65234375,0.78515625,1.0546875,0.005859375,-0.05078125,-0.001953125
2026-09-03T16:23:29.196593,0.51129150390625,0.479248046875,0.49407958984375,0.5146484375,-0.19140625,0.9765625,0.328125,0.029296875,-0.080078125,-0.029296875
2026-09-03T16:23:29.303214,0.511474609375,0.478515625,0.4908447265625,0.51812744140625,-0.55078125,0.8203125,-0.09375,-0.068359375,-0.0703125,-0.025390625
2026-09-03T16:23:29.396685,0.51055908203125,0.4759521484375,0.4898681640625,0.5223388671875,-0.65625,0.13671875,1.28125,-0.017578125,-0.0859375,0.015625
2026-09-03T16:23:29.502341,0.51177978515625,0.47412109375,0.48712158203125,0.525390625,-0.8984375,0.671875,1.7578125,0.01953125,-0.1015625,-0.025390625
2026-09-03T16:23:29.596164,0.5150146484375,0.4727783203125,0.4825439453125,0.52764892578125,-1.08984375,0.6796875,1.3125,0.064453125,-0.126953125,-0.013671875
2026-09-03T16:23:29.703547,0.51898193359375,0.47149658203125,0.47711181640625,0.52984619140625,-0.8359375,1.796875,0.01953125,0.05859375,-0.130859375,0.00390625
2026-09-03T16:23:29.811363,0.52252197265625,0.46917724609375,0.47222900390625,0.53277587890625,-0.8671875,1.47265625,-0.13671875,-0.00390625,-0.154296875,-0.005859375
2026-09-03T16:23:29.911918,0.52392578125,0.4658203125,0.4676513671875,0.538330078125,-0.94921875,0.46875,1.12890625,-0.06640625,-0.142578125,0.001953125
2026-09-03T16:23:30.011734,0.52508544921875,0.46087646484375,0.4644775390625,0.544189453125,-0.93359375,0.23046875,2.078125,0.013671875,-0.17578125,0.02734375
2026-09-03T16:23:30.113639,0.52825927734375,0.45648193359375,0.45965576171875,0.54888916015625,-1.0859375,-0.078125,1.26953125,0.0234375,-0.1953125,0.0
2026-09-03T16:23:30.214092,0.5322265625,0.4520263671875,0.45361328125,0.55377197265625,-0.7109375,0.8515625,0.96484375,0.01953125,-0.21484375,-0.001953125
2026-09-03T16:23:30.304464,0.5367431640625,0.4468994140625,0.44683837890625,0.55902099609375,-0.5703125,1.01171875,0.71875,-0.015625,-0.228515625,-0.013671875
2026-09-03T16:23:30.442991,0.54296875,0.43304443359375,0.43414306640625,0.57373046875,-0.46484375,0.41015625,1.0390625,-0.060546875,-0.25,-0.037109375
2026-09-03T16:23:30.522125,0.54327392578125,0.428955078125,0.43096923828125,0.57891845703125,-0.1796875,0.10546875,1.12109375,-0.048828125,-0.267578125,-0.0078125
2026-09-03T16:23:30.622277,0.54547119140625,0.42083740234375,0.424072265625,0.58782958984375,-0.28125,-0.21875,1.83203125,-0.021484375,-0.28515625,0.00390625
2026-09-03T16:23:30.721925,0.54913330078125,0.41192626953125,0.41650390625,0.59613037109375,-0.39453125,-0.0859375,1.76953125,-0.05078125,-0.31640625,0.013671875
2026-09-03T16:23:30.807379,0.5528564453125,0.40185546875,0.40826416015625,0.5972900390625,-0.28125,0.43359375,1.45703125,-0.0390625,-0.326171875,-0.021484375
2026-09-03T16:23:30.905885,0.5552978515625,0.39654541015625,0.40380859375,0.609375,-0.1328125,0.34765625,1.2421875,-0.033203125,-0.359375,-0.0234375
2026-09-03T16:23:31.006472,0.5601806640625,0.3856201171875,0.39385986328125,0.61834716796875,-0.1796875,0.6015625,0.89453125,-0.04296875,-0.3671875,-0.0234375
2026-09-03T16:23:31.104249,0.5643310546875,0.37396240234375,0.3834228515625,0.628173828125,-0.41796875,-0.40234375,2.08203125,-0.01171875,-0.390625,-0.01953125
2026-09-03T16:23:31.205123,0.5679931640625,0.3621826171875,0.3717041015625,0.63873291015625,-1.0078125,1.390625,0.203125,0.02734375,-0.412109375,-0.052734375
2026-09-03T16:23:31.303373,0.57318115234375,0.348876953125,0.3599853515625,0.648193359375,-0.296875,1.0,0.296875,-0.1015625,-0.427734375,-0.001953125
2026-09-03T16:23:31.404836,0.576416015625,0.332275390625,0.35003662109375,0.659423828125,0.1328125,-0.50390625,1.08984375,-0.078125,-0.455078125,0.013671875
