timestamp,quat_i,quat_j,quat_k,quat_real,accel_x,accel_y,accel_z,gyro_x,gyro_y,gyro_z
2026-09-07T13:10:16.230751,0.45587158203125,0.46282958984375,0.54644775390625,0.52850341796875,0.2109375,-0.08203125,-0.18359375,-0.0078125,-0.16796875,-0.0078125
2026-09-07T13:10:16.329110,0.45794677734375,0.4605712890625,0.54449462890625,0.53070068359375,0.05078125,-0.1328125,-0.03125,-0.0078125,-0.171875,-0.013671875
2026-09-07T13:10:16.439022,0.46246337890625,0.45599365234375,0.54052734375,0.5347900390625,0.203125,-0.34765625,-0.25,-0.009765625,-0.166015625,-0.01171875
2026-09-07T13:10:16.528915,0.466064453125,0.45135498046875,0.53680419921875,0.53936767578125,0.41796875,-0.0625,0.1171875,-0.0078125,-0.166015625,-0.029296875
2026-09-07T13:10:16.644831,0.46978759765625,0.44696044921875,0.53265380859375,0.5438232421875,-0.2578125,0.02734375,0.109375,-0.01953125,-0.16796875,-0.017578125
2026-09-07T13:10:16.728803,0.47344970703125,0.44219970703125,0.52838134765625,0.5487060546875,-0.06640625,0.07421875,0.75,-0.015625,-0.181640625,-0.013671875
2026-09-07T13:10:16.839206,0.4775390625,0.43707275390625,0.52398681640625,0.553466796875,-0.203125,0.3515625,0.57421875,-0.013671875,-0.185546875,-0.015625
2026-09-07T13:10:16.928606,0.48162841796875,0.43133544921875,0.51959228515625,0.55853271484375,-0.2578125,-0.09375,0.27734375,-0.015625,-0.203125,-0.009765625
2026-09-07T13:10:17.049622,0.4866943359375,0.42535400390625,0.51458740234375,0.5633544921875,-0.41796875,-0.4296875,0.0390625,0.0234375,-0.21875,0.00390625
2026-09-07T13:10:17.140247,0.49261474609375,0.4189453125,0.509521484375,0.567626953125,-0.17578125,-0.19140625,0.375,0.0,-0.216796875,-0.005859375
2026-09-07T13:10:17.239379,0.49774169921875,0.4127197265625,0.5042724609375,0.5723876953125,-0.10546875,0.20703125,0.07421875,-0.02734375,-0.212890625,-0.01953125
2026-09-07T13:10:17.337299,0.5018310546875,0.4068603515625,0.49871826171875,-1.422119140625,-0.2265625,0.328125,0.19140625,-0.0078125,-0.208984375,-0.0078125
2026-09-07T13:10:17.478838,0.510498046875,0.394775390625,0.48779296875,0.587890625,0.0234375,0.4921875,0.3203125,-0.0234375,-0.208984375,-0.025390625
2026-09-07T13:10:17.527706,0.51226806640625,0.3912353515625,0.4853515625,0.5906982421875,-0.43359375,0.15234375,-0.1640625,-0.03125,-0.216796875,-0.00390625
2026-09-07T13:10:17.664958,0.51446533203125,0.38787841796875,0.482666015625,0.59320068359375,-0.390625,-0.0625,-0.0859375,-0.017578125,-0.216796875,-0.017578125
2026-09-07T13:10:17.743360,0.52020263671875,0.37725830078125,0.47491455078125,0.60125732421875,-0.25390625,-0.59765625,0.45703125,-0.05078125,-0.216796875,-0.0078125
2026-09-07T13:10:17.844307,0.5220947265625,0.37396240234375,0.47216796875,0.60382080078125,-0.19140625,-0.3203125,0.71484375,0.00390625,-0.20703125,-0.009765625
2026-09-07T13:10:17.944285,0.52642822265625,0.36810302734375,0.4661865234375,0.6082763671875,-0.3828125,0.18359375,0.10546875,0.01171875,-0.2109375,-0.037109375
2026-09-07T13:10:18.041393,0.530517578125,0.36236572265625,0.459716796875,0.61309814453125,-0.390625,0.30859375,0.01953125,-0.00390625,-0.224609375,-0.00390625
2026-09-07T13:10:18.142528,0.53466796875,0.35577392578125,0.4534912109375,0.61798095703125,-0.3359375,0.5390625,0.234375,0.009765625,-0.21875,0.0078125
2026-09-07T13:10:18.243452,0.53887939453125,0.34881591796875,0.44775390625,0.6224365234375,-0.32421875,0.0,0.2578125,-0.021484375,-0.21875,0.03515625
2026-09-07T13:10:18.342865,0.54278564453125,0.341552734375,0.44244384765625,0.62689208984375,-0.3984375,0.16015625,-0.3125,-0.044921875,-0.216796875,0.0078125
2026-09-07T13:10:18.440843,0.54608154296875,0.33349609375,0.4375,0.63177490234375,-0.33203125,-0.0234375,0.203125,-0.03515625,-0.216796875,0.01953125
2026-09-07T13:10:18.540440,0.5498046875,0.3255615234375,0.4326171875,0.63604736328125,-0.0859375,-0.16796875,0.4453125,-0.01171875,-0.212890625,-0.01953125
2026-09-07T13:10:18.640998,0.55316162109375,0.3184814453125,0.42694091796875,0.64056396484375,-0.1328125,-0.20703125,0.1328125,-0.01171875,-0.216796875,-0.029296875
2026-09-07T13:10:18.740446,0.55645751953125,0.3123779296875,0.420166015625,0.64520263671875,-0.66015625,0.109375,0.20703125,-0.00390625,-0.21484375,-0.037109375
2026-09-07T13:10:18.842768,0.5596923828125,0.30609130859375,0.41314697265625,0.64990234375,-0.35546875,-0.50390625,0.171875,0.009765625,-0.216796875,-0.0234375
2026-09-07T13:10:18.942918,0.5633544921875,0.29998779296875,0.40606689453125,0.654052734375,-0.15625,-0.47265625,-0.21484375,0.009765625,-0.2109375,-0.056640625
2026-09-07T13:10:19.051919,0.56634521484375,0.2943115234375,0.39886474609375,0.658447265625,-0.953125,-0.04296875,-0.12890625,0.025390625,-0.19921875,0.005859375
2026-09-07T13:10:19.142683,0.57183837890625,0.286376953125,0.3890380859375,0.66302490234375,-0.921875,0.8046875,-1.24609375,0.033203125,-0.185546875,-0.017578125
2026-09-07T13:10:19.252879,0.5731201171875,0.28326416015625,0.38653564453125,0.66473388671875,-0.5,0.9609375,-1.1015625,-0.05078125,-0.158203125,-0.0234375
2026-09-07T13:10:19.342996,0.5748291015625,0.27459716796875,0.37969970703125,0.67083740234375,-0.81640625,0.046875,-0.65625,-0.0390625,-0.154296875,0.00390625
2026-09-07T13:10:19.451856,0.5755615234375,0.27227783203125,0.377197265625,0.67254638671875,-1.11328125,0.38671875,-0.97265625,-0.041015625,-0.154296875,0.005859375
2026-09-07T13:10:19.542871,0.5772705078125,0.2637939453125,0.37115478515625,0.67779541015625,-0.69921875,0.1640625,-0.40625,-0.021484375,-0.1484375,0.013671875
2026-09-07T13:10:19.650760,0.578125,0.2613525390625,0.36920166015625,0.6790771484375,-0.82421875,0.4296875,-0.328125,-0.017578125,-0.1484375,-0.013671875
2026-09-07T13:10:19.741911,0.5806884765625,0.2548828125,0.36181640625,0.683349609375,-0.84375,-0.06640625,-0.7734375,-0.037109375,-0.15234375,-0.01171875
2026-09-07T13:10:19.851652,0.58111572265625,0.2525634765625,0.359375,0.68505859375,-0.8359375,-0.375,-0.54296875,-0.02734375,-0.130859375,-0.01171875
2026-09-07T13:10:19.942150,0.582763671875,0.2467041015625,0.35260009765625,0.68939208984375,-0.546875,-0.14453125,-0.49609375,-0.013671875,-0.125,-0.029296875
2026-09-07T13:10:20.050274,0.5833740234375,0.24517822265625,0.3502197265625,0.69061279296875,-0.07421875,0.42578125,-0.015625,-0.0234375,-0.107421875,0.001953125
2026-09-07T13:10:20.142293,0.5888671875,0.24908447265625,0.3369140625,0.69110107421875,-0.328125,0.1875,-0.09765625,0.00390625,-0.10546875,0.0078125
2026-09-07T13:10:20.250944,0.59014892578125,0.24737548828125,0.33544921875,0.69140625,0.1171875,-0.5546875,-0.3125,0.005859375,-0.078125,0.005859375
2026-09-07T13:10:20.348580,0.5928955078125,0.24359130859375,0.33154296875,0.69219970703125,0.1015625,0.1953125,-1.20703125,-0.05078125,-0.0625,-0.01171875
2026-09-07T13:10:20.441224,0.5924072265625,0.2412109375,0.32952880859375,0.6944580078125,0.03125,0.46484375,-1.1484375,-0.0390625,-0.064453125,-0.021484375
2026-09-07T13:10:20.549793,0.59185791015625,0.2401123046875,0.3284912109375,0.69580078125,0.01171875,0.41015625,-0.56640625,-0.02734375,-0.0625,-0.033203125
2026-09-07T13:10:20.648662,0.59100341796875,0.237548828125,0.32464599609375,0.69921875,-0.39453125,-0.39453125,0.22265625,-0.01953125,-0.0546875,-0.00390625
2026-09-07T13:10:20.749822,0.59136962890625,0.23602294921875,0.32269287109375,0.70037841796875,-0.1796875,0.0546875,-0.54296875,0.00390625,-0.0546875,-0.005859375
2026-09-07T13:10:20.869107,0.59246826171875,0.23419189453125,0.319091796875,0.70166015625,-0.1875,0.31640625,-0.64453125,0.00390625,-0.052734375,-0.033203125
2026-09-07T13:10:20.950641,0.5926513671875,0.233642578125,-1.6822509765625,0.7022705078125,0.37890625,-0.2578125,-0.7109375,-0.009765625,-0.052734375,-0.0390625
2026-09-07T13:10:21.040047,0.5931396484375,0.23291015625,0.31488037109375,0.70343017578125,-0.07421875,0.5078125,-0.47265625,-0.0078125,-0.056640625,-0.01953125
2026-09-07T13:10:21.169279,0.59490966796875,0.23095703125,0.311767578125,0.7039794921875,-0.37109375,0.5,-0.41015625,-0.001953125,-0.0546875,0.015625
2026-09-07T13:10:21.270923,0.6004638671875,0.2374267578125,0.30316162109375,0.70086669921875,-0.33984375,-0.28125,-0.44921875,0.025390625,-0.048828125,0.00390625
2026-09-07T13:10:21.365673,0.60693359375,0.24658203125,0.2930908203125,0.6964111328125,0.29296875,-0.16796875,-0.71875,0.05078125,-0.029296875,-0.0078125
2026-09-07T13:10:21.463323,0.610107421875,0.249267578125,0.28936767578125,0.6942138671875,0.203125,-0.06640625,-0.86328125,0.041015625,-0.017578125,0.005859375
2026-09-07T13:10:21.562705,0.6126708984375,0.25146484375,0.28631591796875,0.6923828125,0.31640625,0.171875,-0.30859375,0.037109375,-0.017578125,-0.029296875
2026-09-07T13:10:21.660621,0.61468505859375,0.25372314453125,0.28289794921875,0.69122314453125,0.37109375,-0.87109375,-0.484375,0.046875,-0.0234375,-0.044921875
2026-09-07T13:10:21.761905,0.61651611328125,0.255859375,0.27947998046875,0.690185546875,0.01953125,0.19140625,-0.71875,0.01171875,-0.021484375,-0.0234375
2026-09-07T13:10:21.864000,0.61669921875,0.256591796875,0.27789306640625,0.69036865234375,0.03515625,0.73046875,-0.8515625,-0.037109375,-0.015625,0.005859375
2026-09-07T13:10:21.963267,0.6168212890625,0.25726318359375,0.27691650390625,0.6904296875,0.08203125,0.69140625,-1.01171875,-0.0703125,-0.0078125,0.015625
2026-09-07T13:10:22.078266,0.61712646484375,0.2572021484375,0.27685546875,0.690185546875,0.1328125,0.33984375,0.046875,-0.015625,-0.001953125,0.01953125
2026-09-07T13:10:22.161287,0.6181640625,0.25701904296875,0.2772216796875,0.68914794921875,-0.05078125,-0.3203125,-0.15234375,-0.009765625,0.0,0.0390625
2026-09-07T13:10:22.263141,0.61956787109375,0.25634765625,0.27764892578125,0.68798828125,0.25390625,0.0546875,-0.3125,-0.001953125,-0.0078125,0.029296875
2026-09-07T13:10:22.363082,0.62066650390625,0.2562255859375,0.277099609375,0.687255859375,0.34765625,-0.18359375,-0.40625,0.021484375,-0.015625,-0.015625
2026-09-07T13:10:22.462520,0.62139892578125,0.25653076171875,0.27593994140625,0.68701171875,0.30859375,0.27734375,-0.56640625,-0.01953125,-0.013671875,-0.015625
2026-09-07T13:10:22.563016,0.621826171875,0.25732421875,0.274658203125,0.68682861328125,0.171875,-0.03125,-0.12890625,-0.00390625,-0.00390625,-0.0234375
2026-09-07T13:10:22.663829,0.62298583984375,0.2584228515625,0.27349853515625,0.685791015625,0.1015625,0.31640625,-0.1875,0.015625,-0.001953125,-0.021484375
2026-09-07T13:10:22.760178,0.62432861328125,0.2591552734375,0.2724609375,0.6846923828125,0.0625,-0.11328125,-0.03515625,0.009765625,-0.00390625,0.0
2026-09-07T13:10:22.859793,0.626220703125,0.25946044921875,0.2713623046875,0.683349609375,0.2109375,-0.3828125,-0.07421875,0.013671875,-0.013671875,0.01171875
2026-09-07T13:10:22.958587,0.62835693359375,0.25946044921875,0.27056884765625,0.681640625,0.30859375,-0.19140625,-0.1484375,0.03515625,-0.015625,0.015625
2026-09-07T13:10:23.059778,0.63006591796875,0.25958251953125,0.26995849609375,0.6802978515625,0.26171875,0.03125,-0.29296875,0.025390625,-0.009765625,0.005859375
2026-09-07T13:10:23.182167,0.631103515625,0.25909423828125,0.2696533203125,0.6795654296875,0.421875,0.14453125,-0.30859375,-0.0234375,-0.013671875,0.0234375
2026-09-07T13:10:23.261237,0.6329345703125,0.25909423828125,0.26885986328125,0.67822265625,0.76171875,-1.00390625,0.265625,-0.00390625,-0.013671875,0.01171875
2026-09-07T13:10:23.366146,0.634033203125,0.25909423828125,0.26812744140625,0.67742919921875,0.59765625,0.4140625,-0.4296875,0.017578125,-0.009765625,-0.0078125
2026-09-07T13:10:23.462927,0.63470458984375,0.25909423828125,0.2677001953125,0.67706298828125,0.4375,0.0625,-0.23828125,-0.01171875,-0.005859375,-0.0078125
2026-09-07T13:10:23.577577,0.63519287109375,0.2587890625,0.2674560546875,0.67681884765625,0.375,0.29296875,-0.19921875,-0.0078125,-0.0078125,0.001953125
2026-09-07T13:10:23.661637,0.63531494140625,0.2581787109375,0.26727294921875,0.67694091796875,0.56640625,-0.0546875,-0.0390625,-0.041015625,-0.015625,0.013671875
2026-09-07T13:10:23.765342,0.63470458984375,0.257568359375,0.26727294921875,0.67779541015625,-0.359375,0.33203125,-0.140625,-0.013671875,-0.01171875,-0.02734375
2026-09-07T13:10:23.864599,0.635009765625,0.25653076171875,0.2679443359375,0.6776123046875,0.40625,0.13671875,0.03515625,-0.0234375,-0.005859375,0.013671875
2026-09-07T13:10:23.964243,0.63592529296875,0.255615234375,0.2679443359375,0.67706298828125,0.53515625,-0.015625,0.0078125,-0.0078125,-0.01171875,-0.00390625
2026-09-07T13:10:24.063484,0.636474609375,0.25433349609375,0.2679443359375,0.67706298828125,0.3125,0.09375,-0.15625,-0.021484375,-0.021484375,0.01171875
2026-09-07T13:10:24.164928,0.63623046875,0.25286865234375,0.26800537109375,0.67779541015625,0.21875,0.515625,-0.29296875,-0.041015625,-0.017578125,0.00390625
2026-09-07T13:10:24.263430,0.6357421875,0.25146484375,0.268310546875,0.67864990234375,0.28125,0.55078125,-0.23828125,-0.046875,-0.015625,0.0
2026-09-07T13:10:24.362460,0.63623046875,0.25018310546875,0.268798828125,0.67852783203125,0.25,-0.0234375,0.1953125,-0.013671875,-0.013671875,0.01171875
2026-09-07T13:10:24.476925,0.6365966796875,0.2491455078125,0.26910400390625,0.67840576171875,0.37109375,-0.0703125,-0.0859375,-0.009765625,-0.01171875,0.01171875
2026-09-07T13:10:24.573910,0.63671875,0.2479248046875,0.26947021484375,0.67864990234375,0.38671875,-0.22265625,-0.01953125,-0.013671875,-0.015625,0.0078125
2026-09-07T13:10:24.677606,0.637451171875,0.24603271484375,0.2701416015625,0.6783447265625,0.12890625,0.30078125,-0.1953125,-0.0390625,-0.017578125,0.0234375
2026-09-07T13:10:24.763295,0.63873291015625,0.2430419921875,0.272216796875,0.6773681640625,-0.0234375,0.0859375,0.05859375,-0.029296875,-0.02734375,-0.009765625
2026-09-07T13:10:24.873158,0.6397705078125,0.23895263671875,0.2740478515625,0.6771240234375,-0.078125,-0.203125,0.453125,-0.037109375,-0.03515625,-0.005859375
2026-09-07T13:10:24.963394,0.63995361328125,0.23785400390625,0.27276611328125,0.6778564453125,-0.078125,0.1015625,0.21875,0.015625,-0.03515625,-0.029296875
2026-09-07T13:10:25.072342,0.640625,0.23681640625,0.27130126953125,0.67816162109375,-0.25390625,0.21484375,0.24609375,0.00390625,-0.041015625,0.0
2026-09-07T13:10:25.171131,0.6416015625,0.2352294921875,0.2701416015625,0.67828369140625,-0.20703125,0.140625,-0.02734375,0.013671875,-0.04296875,-0.00390625
2026-09-07T13:10:25.262053,0.64215087890625,0.23321533203125,0.2691650390625,0.6788330078125,0.015625,0.22265625,-0.3125,-0.0234375,-0.048828125,-0.01171875
2026-09-07T13:10:25.373364,0.64178466796875,0.2310791015625,0.26806640625,0.68035888671875,-0.66796875,0.26171875,0.1484375,-0.013671875,-0.052734375,-0.0078125
2026-09-07T13:10:25.473496,0.641845703125,0.228515625,0.2666015625,0.68170166015625,-0.65234375,-0.203125,0.4609375,-0.017578125,-0.0703125,0.001953125
2026-09-07T13:10:25.575040,0.6424560546875,0.2255859375,0.264892578125,0.6827392578125,-0.421875,0.140625,0.1171875,0.013671875,-0.07421875,-0.01171875
2026-09-07T13:10:25.676784,0.6435546875,0.222900390625,0.26275634765625,0.6834716796875,-0.40625,0.22265625,0.0703125,0.00390625,-0.0703125,-0.00390625
2026-09-07T13:10:25.777798,0.6444091796875,0.220458984375,0.26055908203125,0.68426513671875,-0.3046875,0.109375,-0.328125,0.0,-0.06640625,-0.013671875
2026-09-07T13:10:25.878994,0.64459228515625,0.2177734375,0.2586669921875,0.68572998046875,-0.2890625,-0.16796875,0.26953125,-0.01953125,-0.0703125,0.0078125
2026-09-07T13:10:25.977544,0.6448974609375,0.2152099609375,0.25653076171875,0.68701171875,0.0234375,0.29296875,0.0078125,0.009765625,-0.068359375,-0.021484375
2026-09-07T13:10:26.076622,0.645263671875,0.21307373046875,0.25421142578125,0.68817138671875,-0.14453125,0.24609375,-0.0078125,-0.015625,-0.064453125,-0.005859375
2026-09-07T13:10:26.177563,0.64544677734375,0.2105712890625,0.252197265625,0.68951416015625,-0.25,-0.3203125,-0.0234375,-0.001953125,-0.068359375,-0.00390625
2026-09-07T13:10:26.277352,0.6455078125,0.2081298828125,0.25006103515625,0.6910400390625,-0.08984375,0.21484375,0.07421875,-0.015625,-0.072265625,-0.017578125
2026-09-07T13:10:26.377903,0.6453857421875,0.2056884765625,0.24755859375,0.6927490234375,0.1171875,0.24609375,-0.33984375,-0.03515625,-0.0703125,-0.0234375
2026-09-07T13:10:26.478661,0.6444091796875,0.2030029296875,0.245361328125,0.6951904296875,-0.2109375,-0.01171875,0.234375,-0.033203125,-0.06640625,-0.009765625
2026-09-07T13:10:26.576819,0.64361572265625,0.2005615234375,0.2431640625,0.69744873046875,-0.09765625,-0.328125,0.2890625,-0.0078125,-0.072265625,-0.01171875
2026-09-07T13:10:26.677896,0.64349365234375,0.1981201171875,0.24078369140625,0.6990966796875,0.1484375,-0.01953125,0.08203125,-0.001953125,-0.07421875,-0.03125
2026-09-07T13:10:26.778728,0.6435546875,0.19586181640625,0.23785400390625,0.70062255859375,-0.03515625,0.1328125,-0.15625,-0.01171875,-0.076171875,-0.0078125
2026-09-07T13:10:26.877124,0.64373779296875,0.19378662109375,0.23486328125,0.7020263671875,0.24609375,-0.01171875,-0.09375,-0.013671875,-0.072265625,-0.01953125
2026-09-07T13:10:26.976928,0.64361572265625,0.19195556640625,0.2318115234375,0.7037353515625,0.00390625,0.1796875,0.03515625,-0.029296875,-0.0703125,-0.03125
2026-09-07T13:10:27.087801,0.64276123046875,0.18988037109375,0.22882080078125,0.70599365234375,-0.02734375,0.0625,0.26953125,-0.021484375,-0.07421875,-0.021484375
2026-09-07T13:10:27.177308,0.64208984375,0.1865234375,0.2244873046875,0.70892333984375,0.01953125,0.25390625,0.484375,-0.015625,-0.07421875,0.0
2026-09-07T13:10:27.287067,0.64202880859375,0.185546875,0.222900390625,0.709716796875,0.5625,-0.2734375,0.15625,0.00390625,-0.078125,-0.015625
2026-09-07T13:10:27.400255,0.64227294921875,0.18157958984375,0.2169189453125,0.71234130859375,0.30078125,-0.49609375,-0.1953125,0.00390625,-0.076171875,-0.009765625
2026-09-07T13:10:27.475108,0.64239501953125,0.180419921875,0.2154541015625,0.71295166015625,0.1875,-0.07421875,0.4453125,-0.0078125,-0.078125,-0.013671875
2026-09-07T13:10:27.597506,0.6424560546875,0.17938232421875,0.21392822265625,0.71368408203125,0.30859375,-0.1875,0.0546875,-0.00390625,-0.072265625,-0.029296875
2026-09-07T13:10:27.684284,0.64263916015625,0.17620849609375,0.2093505859375,0.71563720703125,0.125,0.046875,0.19921875,-0.01171875,-0.072265625,-0.021484375
2026-09-07T13:10:27.776558,0.64288330078125,0.17437744140625,0.2061767578125,0.716796875,0.171875,0.27734375,0.23046875,0.0,-0.072265625,-0.029296875
2026-09-07T13:10:27.877394,0.64306640625,0.17315673828125,0.204833984375,0.71728515625,-0.171875,-0.1796875,0.1171875,0.013671875,-0.078125,-0.0234375
2026-09-07T13:10:27.985720,0.64373779296875,0.170654296875,0.201904296875,0.7181396484375,0.09765625,0.1640625,-0.42578125,-0.00390625,-0.0703125,-0.01953125
2026-09-07T13:10:28.076291,0.64410400390625,0.16717529296875,0.1978759765625,0.7197265625,0.2578125,-0.02734375,-0.20703125,0.0234375,-0.07421875,-0.017578125
2026-09-07T13:10:28.194587,0.64459228515625,0.16619873046875,0.19647216796875,0.71990966796875,-0.1328125,-0.09765625,0.33984375,0.017578125,-0.068359375,-0.017578125
2026-09-07T13:10:28.274284,0.64581298828125,0.16265869140625,0.1927490234375,0.72064208984375,0.31640625,0.0546875,-0.3828125,-0.0078125,-0.06640625,-0.01953125
2026-09-07T13:10:28.383610,0.6458740234375,0.1614990234375,0.191650390625,0.72113037109375,0.15625,-0.05859375,0.078125,0.021484375,-0.060546875,-0.013671875
2026-09-07T13:10:28.483856,0.64715576171875,0.15838623046875,0.18829345703125,0.7215576171875,0.34765625,-0.01953125,-0.28125,0.0078125,-0.060546875,-0.015625
2026-09-07T13:10:28.575761,0.6478271484375,0.15643310546875,0.1859130859375,0.72198486328125,-0.05078125,-0.05859375,0.03125,0.0078125,-0.064453125,-0.013671875
2026-09-07T13:10:28.685497,0.64825439453125,0.15545654296875,0.18475341796875,0.72216796875,0.1875,-0.44140625,-0.1875,0.01953125,-0.056640625,0.00390625
2026-09-07T13:10:28.784665,0.65008544921875,0.15252685546875,0.18157958984375,0.721923828125,-0.125,0.29296875,0.02734375,0.0078125,-0.060546875,-0.01171875
2026-09-07T13:10:28.875099,0.65087890625,0.150634765625,0.1790771484375,0.72222900390625,-0.47265625,0.44140625,-0.265625,0.001953125,-0.06640625,-0.017578125
2026-09-07T13:10:28.984148,0.65142822265625,0.14984130859375,0.1776123046875,0.7222900390625,-1.4453125,0.171875,-0.51171875,-0.001953125,-0.056640625,-0.009765625
2026-09-07T13:10:29.082710,0.65240478515625,0.14727783203125,0.1741943359375,0.7227783203125,-1.49609375,0.203125,-0.6171875,-0.001953125,-0.052734375,0.0078125
2026-09-07T13:10:29.181743,0.6533203125,0.1456298828125,0.172119140625,0.72271728515625,-1.44140625,0.46875,-0.28515625,-0.013671875,-0.056640625,0.005859375
2026-09-07T13:10:29.283315,0.65374755859375,0.1436767578125,0.17041015625,0.72308349609375,-1.21875,0.23046875,-0.578125,0.009765625,-0.044921875,-0.015625
2026-09-07T13:10:29.384017,0.65447998046875,0.1422119140625,0.168701171875,0.72314453125,-1.38671875,-0.03515625,-0.71484375,0.02734375,-0.037109375,-0.005859375
2026-09-07T13:10:29.483841,0.65576171875,0.14141845703125,0.1671142578125,0.7225341796875,-1.1953125,0.0625,-0.6015625,0.03125,-0.029296875,0.001953125
2026-09-07T13:10:29.591637,0.656982421875,0.14111328125,0.16558837890625,0.72186279296875,-1.00390625,0.09375,-0.63671875,0.01171875,-0.0234375,0.00390625
2026-09-07T13:10:29.680124,0.65765380859375,0.140869140625,0.1644287109375,0.7215576171875,-0.90234375,0.19921875,-0.7421875,0.009765625,-0.015625,0.001953125
2026-09-07T13:10:29.792069,0.65814208984375,0.14056396484375,0.1636962890625,0.7213134765625,-0.65625,0.125,-0.64453125,-0.009765625,-0.013671875,-0.015625
2026-09-07T13:10:29.898799,0.66302490234375,0.15093994140625,0.153564453125,0.71697998046875,-0.02734375,0.08984375,0.15234375,0.009765625,-0.015625,-0.017578125
2026-09-07T13:10:29.995644,0.66754150390625,0.16082763671875,0.1436767578125,0.712646484375,0.33203125,0.08203125,0.1640625,0.00390625,-0.013671875,0.001953125
2026-09-07T13:10:30.099888,0.670654296875,0.1671142578125,0.1368408203125,0.7095947265625,0.3515625,-0.109375,0.1328125,0.00390625,-0.0078125,0.01171875
2026-09-07T13:10:30.193611,0.6717529296875,0.167724609375,0.13580322265625,0.70867919921875,0.53515625,0.08203125,0.1015625,0.0078125,-0.005859375,0.01953125
2026-09-07T13:10:30.296603,0.6722412109375,0.1673583984375,0.1357421875,0.70831298828125,0.80859375,-0.1015625,-0.05078125,0.0,-0.00390625,0.00390625
2026-09-07T13:10:30.400760,0.67205810546875,0.16729736328125,0.135498046875,0.70849609375,0.78515625,0.16015625,-0.05859375,-0.009765625,-0.001953125,-0.0078125
2026-09-07T13:10:30.511310,0.6729736328125,0.1649169921875,0.1376953125,0.707763671875,0.640625,-0.1015625,0.125,-0.01171875,0.0,0.0
2026-09-07T13:10:30.597279,0.6754150390625,0.15850830078125,0.1435546875,0.70574951171875,-0.0546875,-0.0703125,0.26171875,-0.00390625,-0.00390625,0.00390625
2026-09-07T13:10:30.701339,0.67626953125,0.1551513671875,0.14642333984375,0.705078125,-0.046875,-0.03125,0.0546875,0.005859375,-0.00390625,-0.00390625
2026-09-07T13:10:30.794201,0.67657470703125,0.15277099609375,0.1484375,0.70489501953125,-0.0546875,0.1015625,-0.0859375,0.0,-0.00390625,0.00390625
2026-09-07T13:10:30.894980,0.67681884765625,0.15081787109375,0.15008544921875,0.70477294921875,0.0078125,0.12109375,-0.10546875,-0.017578125,-0.00390625,0.013671875
2026-09-07T13:10:30.994603,0.67694091796875,0.149658203125,0.151123046875,0.70465087890625,0.05859375,-0.13671875,-0.03125,-0.001953125,0.00390625,-0.01171875
2026-09-07T13:10:31.094460,0.6767578125,0.14886474609375,0.1517333984375,0.704833984375,0.12109375,-0.078125,-0.03125,-0.025390625,-0.00390625,0.005859375
2026-09-07T13:10:31.194803,0.67669677734375,0.1480712890625,0.1522216796875,0.70501708984375,-0.0390625,0.0703125,0.0859375,-0.00390625,-0.001953125,-0.00390625
2026-09-07T13:10:31.297370,0.67669677734375,0.14739990234375,0.15277099609375,0.7049560546875,-0.0625,-0.05078125,0.19140625,-0.01171875,-0.00390625,0.005859375
2026-09-07T13:10:31.396268,0.67657470703125,0.14691162109375,0.153076171875,0.70513916015625,-0.09375,0.15625,-0.046875,0.01171875,-0.00390625,-0.009765625
2026-09-07T13:10:31.496259,0.6763916015625,0.1463623046875,0.15338134765625,0.70538330078125,-0.0078125,0.21484375,-0.18359375,-0.01171875,-0.00390625,0.00390625
2026-09-07T13:10:31.598031,0.6761474609375,0.14605712890625,0.153564453125,0.70562744140625,0.13671875,-0.26171875,0.0390625,-0.005859375,0.0,-0.01953125
2026-09-07T13:10:31.691359,0.67529296875,0.1458740234375,0.1536865234375,0.70648193359375,-0.26953125,0.25390625,-0.0859375,-0.03125,0.0,-0.0078125
2026-09-07T13:10:31.793586,0.6751708984375,0.14556884765625,0.154052734375,0.70654296875,-0.015625,-0.1015625,0.16015625,0.001953125,0.001953125,-0.0078125
2026-09-07T13:10:31.896884,0.6751708984375,0.14520263671875,0.15447998046875,0.70654296875,0.05078125,0.015625,0.15234375,0.0078125,0.001953125,0.001953125
2026-09-07T13:10:31.992710,0.67498779296875,0.1446533203125,0.155029296875,0.70672607421875,0.2734375,0.0078125,-0.27734375,0.009765625,-0.001953125,0.0078125
2026-09-07T13:10:32.094462,0.6746826171875,0.14422607421875,0.15533447265625,0.70703125,0.01171875,-0.328125,0.11328125,-0.009765625,0.0,-0.005859375
2026-09-07T13:10:32.197146,0.67474365234375,0.14373779296875,0.15576171875,0.70697021484375,0.10546875,0.0546875,-0.1875,0.01171875,0.0,-0.00390625
2026-09-07T13:10:32.296644,0.67462158203125,0.1431884765625,0.15606689453125,0.7071533203125,0.05078125,0.1328125,0.10546875,-0.001953125,-0.00390625,-0.01171875
2026-09-07T13:10:32.396386,0.67437744140625,0.14251708984375,0.156494140625,0.7073974609375,0.01171875,0.015625,-0.0703125,-0.01953125,-0.00390625,0.0078125
2026-09-07T13:10:32.499496,0.673828125,0.1417236328125,0.156982421875,0.7080078125,0.08984375,-0.0546875,0.05078125,-0.015625,-0.00390625,0.00390625
2026-09-07T13:10:32.607588,0.67333984375,0.14117431640625,0.15704345703125,0.70849609375,0.03515625,-0.19921875,-0.0546875,-0.009765625,-0.00390625,-0.0078125
2026-09-07T13:10:32.696956,0.6727294921875,0.140380859375,0.1571044921875,0.70928955078125,0.125,-0.12890625,0.25,-0.01171875,-0.005859375,-0.01171875
2026-09-07T13:10:32.798458,0.67230224609375,0.1395263671875,0.15704345703125,0.7098388671875,0.0859375,0.1171875,0.05078125,-0.013671875,-0.013671875,0.017578125
2026-09-07T13:10:32.911513,0.6722412109375,0.13812255859375,0.156982421875,0.710205078125,0.26171875,-0.19140625,0.109375,0.009765625,-0.0234375,0.001953125
2026-09-07T13:10:33.006948,0.67254638671875,0.136962890625,0.15679931640625,0.71014404296875,0.29296875,-0.14453125,-0.00390625,0.015625,-0.015625,0.0
2026-09-07T13:10:33.106784,0.6712646484375,0.1334228515625,0.15936279296875,0.71148681640625,0.18359375,-0.08984375,-0.15234375,0.052734375,-0.03125,0.0234375
2026-09-07T13:10:33.209248,0.670166015625,0.12994384765625,0.16162109375,0.712646484375,0.21875,0.21484375,-0.13671875,-0.01171875,-0.017578125,-0.017578125
2026-09-07T13:10:33.293700,0.6700439453125,0.1282958984375,0.16241455078125,0.712890625,0.56640625,0.0234375,0.0390625,-0.0234375,-0.025390625,-0.00390625
2026-09-07T13:10:33.394473,0.669677734375,0.125,0.16375732421875,0.7135009765625,0.0859375,-0.3203125,0.23046875,-0.02734375,-0.029296875,-0.001953125
2026-09-07T13:10:33.495243,0.6690673828125,0.12158203125,0.16485595703125,0.71441650390625,-0.05859375,0.0078125,0.51953125,-0.0234375,-0.03515625,0.0
2026-09-07T13:10:33.595779,0.6693115234375,0.11981201171875,0.1636962890625,0.71478271484375,-0.06640625,0.140625,0.359375,0.005859375,-0.044921875,-0.001953125
2026-09-07T13:10:33.694943,0.67010498046875,0.11810302734375,0.16241455078125,0.714599609375,0.1953125,-0.04296875,-0.13671875,0.01171875,-0.04296875,0.005859375
2026-09-07T13:10:33.795649,0.67083740234375,0.11651611328125,0.1612548828125,0.7144775390625,0.1875,-0.08203125,-0.30078125,0.009765625,-0.03515625,-0.00390625
2026-09-07T13:10:33.904576,0.67132568359375,0.114990234375,0.16046142578125,0.71441650390625,0.29296875,0.1171875,-0.0625,0.005859375,-0.033203125,0.0078125
2026-09-07T13:10:33.993729,0.67156982421875,0.11358642578125,0.15997314453125,0.7144775390625,0.46875,0.078125,-0.40625,-0.0078125,-0.021484375,0.001953125
2026-09-07T13:10:34.095000,0.672607421875,0.11016845703125,0.1617431640625,0.71368408203125,0.05859375,0.0703125,-0.2421875,0.00390625,-0.015625,-0.005859375
2026-09-07T13:10:34.188434,0.6749267578125,0.10418701171875,0.1663818359375,0.7113037109375,0.05859375,0.0234375,-0.01953125,-0.0078125,-0.00390625,-0.00390625
2026-09-07T13:10:34.294321,0.67620849609375,0.10137939453125,0.168701171875,0.7099609375,-0.12109375,-0.2421875,0.10546875,-0.001953125,0.0,-0.009765625
2026-09-07T13:10:34.394105,0.67730712890625,0.0994873046875,0.1702880859375,0.70880126953125,-0.171875,-0.08203125,0.05078125,0.005859375,0.0,-0.009765625
2026-09-07T13:10:34.495015,0.67755126953125,0.09869384765625,0.1707763671875,0.70849609375,-0.2265625,0.19921875,-0.04296875,0.0,-0.001953125,0.0
2026-09-07T13:10:34.594507,0.6781005859375,0.098388671875,0.1710205078125,0.70794677734375,-0.125,0.17578125,0.04296875,0.01171875,0.0,0.013671875
2026-09-07T13:10:34.693936,0.67864990234375,0.09893798828125,0.171142578125,0.70733642578125,-0.23046875,0.078125,-0.5078125,0.01171875,0.015625,0.0
2026-09-07T13:10:34.794708,0.679443359375,0.10003662109375,0.1715087890625,0.70635986328125,-0.3125,0.1015625,-0.3046875,0.025390625,0.0234375,0.005859375
2026-09-07T13:10:34.901696,0.6810302734375,0.10272216796875,0.17083740234375,0.70458984375,-0.3359375,0.09375,-0.02734375,-0.013671875,0.03125,0.0
2026-09-07T13:10:34.993491,0.68048095703125,0.1038818359375,0.17181396484375,0.7047119140625,-0.51953125,-0.22265625,0.0859375,-0.013671875,0.029296875,-0.00390625
2026-09-07T13:10:35.103726,0.67987060546875,0.10498046875,0.172607421875,0.7049560546875,-0.609375,-0.078125,0.26953125,-0.021484375,0.029296875,-0.001953125
2026-09-07T13:10:35.193545,0.6795654296875,0.10595703125,0.17340087890625,0.70489501953125,-0.6796875,-0.0390625,0.34765625,-0.005859375,0.021484375,0.0
2026-09-07T13:10:35.301247,0.67950439453125,0.1068115234375,0.174072265625,0.7047119140625,-0.55078125,0.11328125,0.23046875,-0.001953125,0.021484375,0.0
2026-09-07T13:10:35.401579,0.6795654296875,0.10760498046875,0.1741943359375,0.70440673828125,-0.53515625,0.0390625,0.37890625,0.01171875,0.005859375,-0.001953125
2026-09-07T13:10:35.501518,0.68011474609375,0.1085205078125,0.1737060546875,0.70391845703125,-0.0546875,-0.0703125,-0.02734375,-0.015625,0.005859375,-0.005859375
2026-09-07T13:10:35.600248,0.6768798828125,0.11871337890625,0.16436767578125,0.7076416015625,-0.0859375,0.0859375,-0.1015625,-0.017578125,0.00390625,0.001953125
2026-09-07T13:10:35.700272,0.6756591796875,0.12310791015625,0.16046142578125,0.70892333984375,0.01953125,-0.23046875,0.08984375,-0.00390625,0.00390625,-0.01953125
2026-09-07T13:10:35.801832,0.67462158203125,0.1259765625,0.15777587890625,0.71002197265625,-0.015625,0.1171875,0.37890625,0.013671875,-0.0078125,-0.009765625
2026-09-07T13:10:35.901750,0.6739501953125,0.12774658203125,0.15545654296875,0.71087646484375,0.0,0.078125,0.02734375,0.0,-0.009765625,-0.01171875
2026-09-07T13:10:36.002736,0.6728515625,0.12890625,0.1534423828125,0.712158203125,0.07421875,0.125,-0.1875,0.01171875,-0.013671875,-0.0078125
2026-09-07T13:10:36.101818,0.67279052734375,0.12933349609375,0.1522216796875,0.71234130859375,0.09765625,0.03125,-0.30859375,0.00390625,-0.00390625,0.009765625
2026-09-07T13:10:36.203411,0.6729736328125,0.1297607421875,0.151611328125,0.7122802734375,-0.078125,0.109375,-0.140625,0.0,-0.001953125,-0.00390625
2026-09-07T13:10:36.303427,0.67315673828125,0.13018798828125,0.15087890625,0.712158203125,-0.01171875,-0.0078125,-0.046875,-0.001953125,-0.005859375,-0.0078125
2026-09-07T13:10:36.405164,0.67340087890625,0.13043212890625,0.1502685546875,0.71197509765625,-0.00390625,-0.109375,0.07421875,-0.025390625,-0.001953125,0.001953125
2026-09-07T13:10:36.506450,0.673583984375,0.13043212890625,0.15008544921875,0.71185302734375,-0.00390625,-0.19140625,0.07421875,-0.009765625,0.0,0.00390625
2026-09-07T13:10:36.605926,0.673828125,0.130615234375,0.14996337890625,0.71160888671875,-0.01171875,-0.11328125,0.14453125,-0.001953125,-0.001953125,0.0
2026-09-07T13:10:36.704223,0.674072265625,0.13055419921875,0.14971923828125,0.71142578125,0.06640625,-0.0078125,-0.03515625,-0.005859375,-0.009765625,0.009765625
2026-09-07T13:10:36.808897,0.67413330078125,0.13043212890625,0.14947509765625,0.71148681640625,-0.01171875,0.03125,-0.1484375,-0.0078125,0.0,-0.001953125
2026-09-07T13:10:36.907669,0.67376708984375,0.13043212890625,0.1494140625,0.71185302734375,0.05859375,-0.046875,-0.01171875,-0.013671875,-0.00390625,0.00390625
2026-09-07T13:10:37.009611,0.67364501953125,0.13043212890625,0.1492919921875,0.71197509765625,-0.0546875,-0.08984375,0.01171875,-0.015625,-0.00390625,0.00390625
2026-09-07T13:10:37.107528,0.6734619140625,0.13031005859375,0.14910888671875,0.71221923828125,-0.01953125,-0.05859375,0.1796875,0.00390625,-0.00390625,0.0
2026-09-07T13:10:37.206808,0.67364501953125,0.1302490234375,0.14886474609375,0.71209716796875,0.02734375,0.14453125,0.05078125,-0.0078125,0.0,0.001953125
2026-09-07T13:10:37.305804,0.67364501953125,0.130126953125,0.1488037109375,0.71209716796875,-0.01171875,-0.0625,0.15625,0.009765625,-0.00390625,-0.00390625
2026-09-07T13:10:37.406255,0.67376708984375,0.13006591796875,0.14862060546875,0.71209716796875,0.01953125,-0.08984375,-0.109375,-0.005859375,-0.005859375,-0.0078125
2026-09-07T13:10:37.506967,0.6734619140625,0.1300048828125,0.14837646484375,0.71240234375,-0.01171875,0.13671875,0.203125,-0.001953125,-0.00390625,0.001953125
2026-09-07T13:10:37.608069,0.67352294921875,0.12982177734375,0.1483154296875,0.71240234375,-0.1875,0.19140625,0.01171875,0.005859375,-0.00390625,0.001953125
2026-09-07T13:10:37.707193,0.67376708984375,0.129638671875,0.148193359375,0.71221923828125,-0.09375,0.08984375,-0.1484375,-0.00390625,-0.0078125,0.013671875
2026-09-07T13:10:37.805241,0.673828125,0.1295166015625,0.1480712890625,0.71221923828125,-0.046875,-0.20703125,-0.01953125,0.013671875,-0.005859375,0.0
2026-09-07T13:10:37.904264,0.6739501953125,0.12957763671875,0.1478271484375,0.71209716796875,-0.35546875,0.21484375,-0.1328125,-0.017578125,-0.001953125,0.01171875
2026-09-07T13:10:38.006459,0.6739501953125,0.129638671875,0.14764404296875,0.712158203125,-0.31640625,0.12109375,-0.0546875,0.0078125,-0.00390625,-0.00390625
2026-09-07T13:10:38.104872,0.67431640625,0.129638671875,0.1473388671875,0.71185302734375,-0.23046875,0.078125,-0.125,0.001953125,-0.001953125,0.0078125
2026-09-07T13:10:38.205689,0.6746826171875,0.1298828125,0.1470947265625,0.7115478515625,0.015625,0.0,-0.109375,-0.00390625,0.00390625,0.015625
2026-09-07T13:10:38.304280,0.675048828125,0.1304931640625,0.14691162109375,0.71112060546875,-0.10546875,-0.0390625,-0.3515625,0.001953125,0.009765625,0.005859375
2026-09-07T13:10:38.406100,0.67529296875,0.13128662109375,0.14678955078125,0.71075439453125,-0.1796875,0.08203125,-0.08984375,0.01171875,0.0078125,0.0078125
2026-09-07T13:10:38.514005,0.67547607421875,0.1319580078125,0.14678955078125,0.71044921875,0.25,0.0078125,0.125,-0.00390625,0.005859375,0.01953125
2026-09-07T13:10:38.603971,0.67547607421875,0.132568359375,0.14691162109375,0.7103271484375,0.29296875,-0.0703125,0.0625,0.0078125,0.0078125,0.017578125
2026-09-07T13:10:38.705388,0.67559814453125,0.1326904296875,0.14703369140625,0.710205078125,0.4375,-0.0078125,-0.0078125,-0.001953125,0.009765625,0.001953125
2026-09-07T13:10:38.813893,0.6756591796875,0.13330078125,0.147216796875,0.70989990234375,0.2890625,-0.08203125,0.10546875,0.00390625,0.009765625,0.015625
2026-09-07T13:10:38.905841,0.67645263671875,0.1339111328125,0.14776611328125,0.708984375,0.2421875,-0.0078125,-0.0390625,0.01953125,0.0078125,0.00390625
2026-09-07T13:10:39.014113,0.67669677734375,0.1339111328125,0.14801025390625,0.708740234375,0.15625,0.03125,-0.1484375,0.005859375,0.0078125,0.00390625
2026-09-07T13:10:39.113485,0.67706298828125,0.1339111328125,0.14886474609375,0.70819091796875,0.0859375,0.0546875,0.046875,0.0,0.013671875,0.0078125
2026-09-07T13:10:39.213586,0.67724609375,0.1337890625,0.1497802734375,0.70782470703125,0.19921875,0.07421875,-0.109375,-0.005859375,0.01171875,-0.001953125
2026-09-07T13:10:39.312823,0.6768798828125,0.1336669921875,0.150634765625,0.7080078125,0.40625,-0.046875,0.07421875,-0.009765625,0.0078125,0.005859375
2026-09-07T13:10:39.402301,0.6768798828125,0.1334228515625,0.151611328125,0.70782470703125,0.28125,-0.046875,0.26171875,0.009765625,0.01171875,0.01953125
2026-09-07T13:10:39.504180,0.67718505859375,0.13336181640625,0.15216064453125,0.70745849609375,1.03125,-0.8515625,0.23828125,0.00390625,0.015625,0.01171875
2026-09-07T13:10:39.603783,0.67742919921875,0.13360595703125,0.153076171875,0.70697021484375,0.58984375,0.18359375,0.23828125,0.01953125,0.01171875,0.0078125
2026-09-07T13:10:39.698194,0.677734375,0.13348388671875,0.15411376953125,0.70648193359375,1.078125,-0.19921875,0.19140625,-0.001953125,0.013671875,0.015625
2026-09-07T13:10:39.803401,0.677734375,0.1331787109375,0.1552734375,0.70623779296875,0.82421875,-0.1171875,0.15234375,-0.015625,0.013671875,0.005859375
2026-09-07T13:10:39.903765,0.6783447265625,0.13006591796875,0.15924072265625,0.70538330078125,0.953125,-0.1171875,0.4140625,0.00390625,0.015625,0.0
2026-09-07T13:10:40.003071,0.6785888671875,0.12396240234375,0.16583251953125,0.7047119140625,0.15625,-0.22265625,-0.04296875,-0.01953125,0.0078125,0.001953125
2026-09-07T13:10:40.102984,0.67822265625,0.111572265625,0.177978515625,0.7042236328125,0.078125,-0.08203125,0.25,0.013671875,0.015625,-0.013671875
2026-09-07T13:10:40.204008,0.67803955078125,0.10504150390625,0.18487548828125,0.70361328125,-0.2421875,-0.08203125,-0.08203125,-0.009765625,0.013671875,0.017578125
2026-09-07T13:10:40.303223,0.67742919921875,0.10009765625,0.19036865234375,0.70343017578125,0.27734375,-0.42578125,-0.10546875,-0.0078125,0.009765625,0.0078125
2026-09-07T13:10:40.403151,0.67681884765625,0.0966796875,0.19427490234375,0.7034912109375,-0.03125,0.0390625,0.20703125,0.00390625,0.0078125,-0.00390625
2026-09-07T13:10:40.510224,0.6763916015625,0.09405517578125,0.19744873046875,0.70330810546875,-0.11328125,0.23046875,0.046875,-0.0078125,0.013671875,-0.00390625
2026-09-07T13:10:40.600393,0.67547607421875,0.091064453125,0.2012939453125,0.7034912109375,0.015625,0.17578125,-0.02734375,-0.0234375,0.0078125,0.0
2026-09-07T13:10:40.697216,0.67535400390625,0.09063720703125,0.20184326171875,0.70355224609375,-0.046875,-0.18359375,0.23046875,-0.0078125,0.0,0.01171875
2026-09-07T13:10:40.797444,0.67498779296875,0.0899658203125,0.2025146484375,0.70379638671875,0.19921875,-0.08203125,0.125,0.0,0.005859375,0.0
2026-09-07T13:10:40.911012,0.674560546875,0.08941650390625,0.20330810546875,0.7039794921875,-0.12890625,0.046875,-0.16796875,-0.025390625,-0.001953125,0.009765625
2026-09-07T13:10:41.002228,0.6734619140625,0.08807373046875,0.20465087890625,0.704833984375,-0.015625,0.046875,-0.015625,-0.013671875,-0.00390625,0.005859375
2026-09-07T13:10:41.111488,0.6732177734375,0.08770751953125,0.20489501953125,0.70501708984375,-0.0546875,0.19140625,0.359375,-0.009765625,-0.00390625,0.005859375
2026-09-07T13:10:41.209624,0.6722412109375,0.08673095703125,0.2054443359375,0.70599365234375,0.015625,-0.0625,0.015625,0.0,-0.001953125,0.001953125
2026-09-07T13:10:41.297804,0.67205810546875,0.086181640625,0.2059326171875,0.7060546875,0.078125,0.03125,-0.046875,0.021484375,-0.001953125,-0.00390625
2026-09-07T13:10:41.400926,0.67169189453125,0.08587646484375,0.20623779296875,0.706298828125,0.078125,-0.05078125,-0.15625,-0.01171875,-0.00390625,0.001953125
2026-09-07T13:10:41.519204,0.67138671875,0.08538818359375,0.20648193359375,0.7066650390625,0.0,0.0390625,0.18359375,-0.0078125,-0.001953125,0.0078125
2026-09-07T13:10:41.608073,0.67108154296875,0.08502197265625,0.2066650390625,0.7069091796875,-0.0703125,0.23046875,-0.078125,-0.01953125,-0.001953125,-0.009765625
2026-09-07T13:10:41.710268,0.6705322265625,0.0848388671875,0.20672607421875,0.70745849609375,-0.08984375,0.0546875,-0.1015625,-0.005859375,0.001953125,0.017578125
2026-09-07T13:10:41.810804,0.6705322265625,0.08465576171875,0.20709228515625,0.70733642578125,-0.06640625,-0.22265625,0.08984375,0.001953125,0.00390625,-0.005859375
2026-09-07T13:10:41.897838,0.6705322265625,0.0848388671875,0.20721435546875,0.707275390625,-0.09765625,0.0703125,-0.09375,0.013671875,0.0,0.01171875
2026-09-07T13:10:42.018748,0.67059326171875,0.08502197265625,0.20721435546875,0.70721435546875,-0.234375,0.15625,0.0390625,0.009765625,0.005859375,0.00390625
2026-09-07T13:10:42.109555,0.67108154296875,0.08612060546875,0.206787109375,0.70672607421875,-0.515625,0.30859375,0.453125,0.029296875,0.0078125,-0.005859375
2026-09-07T13:10:42.219019,0.6722412109375,0.0877685546875,0.2059326171875,0.7056884765625,0.07421875,-0.08203125,-0.19140625,0.037109375,0.015625,0.015625
2026-09-07T13:10:42.308995,0.67315673828125,0.08917236328125,0.20574951171875,0.70465087890625,-0.0546875,0.36328125,-0.05078125,0.01171875,0.025390625,0.00390625
2026-09-07T13:10:42.419529,0.67547607421875,0.09259033203125,0.20477294921875,0.70233154296875,0.25,-0.3359375,-0.6484375,-0.00390625,0.0234375,0.0
2026-09-07T13:10:42.507984,0.67645263671875,0.09344482421875,0.2047119140625,0.7012939453125,-0.109375,0.23046875,0.11328125,-0.005859375,0.03125,-0.005859375
2026-09-07T13:10:42.619510,0.6783447265625,0.09564208984375,0.20526123046875,0.698974609375,-0.03515625,0.3515625,0.11328125,-0.00390625,0.02734375,0.017578125
2026-09-07T13:10:42.717098,0.6785888671875,0.09588623046875,0.20587158203125,0.698486328125,0.21875,-0.4609375,-0.015625,-0.00390625,0.033203125,0.013671875
2026-09-07T13:10:42.817764,0.67889404296875,0.09698486328125,0.20684814453125,0.69781494140625,0.09765625,-0.15234375,-0.4296875,0.001953125,0.02734375,0.048828125
2026-09-07T13:10:42.917881,0.67889404296875,0.0980224609375,0.20770263671875,0.6973876953125,0.34375,0.078125,0.0234375,0.001953125,0.03125,0.021484375
2026-09-07T13:10:42.997465,0.6793212890625,0.09954833984375,0.20843505859375,0.696533203125,0.10546875,-0.14453125,-0.109375,0.01171875,0.0390625,0.00390625
2026-09-07T13:10:43.121873,0.68145751953125,0.10308837890625,0.210205078125,0.693359375,0.05078125,-0.04296875,0.0390625,0.033203125,0.05859375,0.017578125
2026-09-07T13:10:43.217904,0.68438720703125,0.10595703125,0.21209716796875,0.68951416015625,-0.08203125,0.4375,-0.64453125,0.021484375,0.076171875,0.01953125
2026-09-07T13:10:43.317541,0.68621826171875,0.1075439453125,0.2132568359375,0.68707275390625,-0.05078125,-0.14453125,-0.61328125,0.001953125,0.09375,0.015625
2026-09-07T13:10:43.417622,0.69171142578125,0.112548828125,0.217041015625,0.67950439453125,0.0703125,0.17578125,-0.21875,0.001953125,0.09765625,-0.00390625
2026-09-07T13:10:43.515599,0.693359375,0.11419677734375,0.21844482421875,0.67706298828125,-0.05859375,-0.0625,0.10546875,0.005859375,0.095703125,0.001953125
2026-09-07T13:10:43.617701,0.6968994140625,0.11920166015625,0.2225341796875,0.6712646484375,-0.05078125,0.22265625,-0.0625,0.0,0.095703125,-0.0078125
2026-09-07T13:10:43.717323,0.6981201171875,0.12249755859375,0.22552490234375,0.66839599609375,-0.10546875,0.23828125,0.1875,-0.001953125,0.099609375,0.0078125
2026-09-07T13:10:43.818684,0.69854736328125,0.125732421875,0.228759765625,0.666259765625,-0.00390625,-0.16796875,0.2265625,0.001953125,0.095703125,0.015625
2026-09-07T13:10:43.916804,0.69805908203125,0.12890625,0.23223876953125,0.6649169921875,0.01171875,-0.0859375,0.04296875,0.001953125,0.095703125,0.0234375
2026-09-07T13:10:44.005826,0.69769287109375,0.13043212890625,0.23394775390625,0.6644287109375,0.15625,-0.18359375,-0.2265625,0.001953125,0.09375,0.00390625
2026-09-07T13:10:44.121048,0.69671630859375,0.13531494140625,0.23846435546875,0.662841796875,-0.296875,-0.13671875,0.05078125,-0.009765625,0.095703125,0.001953125
2026-09-07T13:10:44.219832,0.69525146484375,0.1385498046875,0.24102783203125,0.662841796875,-0.171875,-0.015625,0.1875,-0.044921875,0.0859375,-0.01171875
2026-09-07T13:10:44.319199,0.69354248046875,0.14093017578125,0.2427978515625,0.6634521484375,-0.234375,-0.421875,0.90625,-0.033203125,0.05078125,0.005859375
2026-09-07T13:10:44.420064,0.692138671875,0.14263916015625,0.243896484375,0.6641845703125,-0.5234375,0.0546875,0.3359375,-0.015625,0.041015625,-0.005859375
2026-09-07T13:10:44.510107,0.69195556640625,0.1435546875,0.244384765625,0.66400146484375,-0.46875,-0.16796875,0.765625,0.0390625,0.044921875,-0.001953125
2026-09-07T13:10:44.609757,0.6922607421875,0.1456298828125,0.2454833984375,0.66278076171875,-0.73046875,0.03125,-0.0390625,0.025390625,0.046875,0.017578125
2026-09-07T13:10:44.705096,0.68719482421875,0.14959716796875,0.24578857421875,0.6671142578125,0.12109375,-0.30859375,-0.625,0.04296875,0.048828125,0.0
2026-09-07T13:10:44.819245,0.680908203125,0.15704345703125,0.24456787109375,0.6722412109375,-0.4375,-0.30078125,0.16015625,0.0390625,0.056640625,-0.021484375
2026-09-07T13:10:44.920976,0.6798095703125,0.158935546875,0.24639892578125,0.67218017578125,-0.30859375,0.953125,-1.0703125,-0.02734375,0.05859375,-0.001953125
2026-09-07T13:10:45.021750,0.67779541015625,0.16064453125,0.24847412109375,0.673095703125,-0.375,0.6796875,-0.57421875,-0.0703125,0.046875,-0.00390625
2026-09-07T13:10:45.117374,0.67535400390625,0.16180419921875,0.25018310546875,0.67462158203125,-0.54296875,0.2421875,-0.49609375,-0.072265625,0.05078125,-0.0078125
2026-09-07T13:10:45.217554,0.6741943359375,0.16278076171875,0.25146484375,0.675048828125,-0.52734375,-0.76171875,0.64453125,-0.03515625,0.037109375,0.017578125
2026-09-07T13:10:45.309692,0.6739501953125,0.1630859375,0.25201416015625,0.675048828125,0.28515625,-1.18359375,0.46875,-0.041015625,0.02734375,0.029296875
2026-09-07T13:10:45.419056,0.67352294921875,0.1649169921875,0.25299072265625,0.6746826171875,0.328125,0.0703125,-0.20703125,0.03125,0.03125,-0.033203125
2026-09-07T13:10:45.516954,0.6728515625,0.1658935546875,0.2542724609375,0.674560546875,-0.12109375,0.1796875,-0.20703125,-0.033203125,0.03515625,0.015625
2026-09-07T13:10:45.618662,0.67138671875,0.17120361328125,0.2518310546875,0.67572021484375,0.0703125,0.0546875,-0.0546875,-0.00390625,0.041015625,0.0234375
2026-09-07T13:10:45.718423,0.6708984375,0.17401123046875,0.25152587890625,0.675537109375,-0.421875,-0.2578125,-0.23828125,0.017578125,0.03515625,0.015625
2026-09-07T13:10:45.812956,0.67047119140625,0.17608642578125,0.251708984375,0.67535400390625,-0.06640625,0.1171875,-0.22265625,0.01953125,0.02734375,0.0078125
2026-09-07T13:10:45.919007,0.6700439453125,0.17828369140625,0.25213623046875,0.675048828125,0.16796875,-0.03515625,-0.2578125,0.009765625,0.041015625,0.001953125
2026-09-07T13:10:46.259779,0.673095703125,0.19085693359375,0.25555419921875,0.667236328125,0.23046875,0.0,-0.71484375,-0.021484375,0.078125,0.013671875
2026-09-07T13:10:46.335479,0.672607421875,0.19219970703125,0.2568359375,0.6668701171875,-0.0078125,0.375,-0.19140625,-0.0078125,0.078125,-0.005859375
2026-09-07T13:10:46.441634,0.67218017578125,0.19342041015625,0.2581787109375,0.66644287109375,0.2890625,-0.4296875,0.0078125,-0.017578125,0.076171875,-0.00390625
2026-09-07T13:10:46.541616,0.67108154296875,0.19622802734375,0.26055908203125,0.66571044921875,-0.24609375,-0.16796875,0.0546875,0.00390625,0.080078125,-0.01171875
2026-09-07T13:10:46.648979,0.67352294921875,0.20013427734375,0.2618408203125,0.66162109375,-0.4609375,0.23828125,0.2578125,0.03125,0.072265625,-0.005859375
2026-09-07T13:10:46.740466,0.6785888671875,0.2060546875,0.2630615234375,0.65411376953125,-0.58203125,0.18359375,0.296875,0.0078125,0.078125,0.00390625
2026-09-07T13:10:46.849538,0.6785888671875,0.2078857421875,0.263671875,0.65325927734375,-0.14453125,0.84765625,-0.515625,0.015625,0.06640625,-0.009765625
2026-09-07T13:10:46.940595,0.67803955078125,0.21173095703125,0.26678466796875,0.65130615234375,-0.02734375,0.04296875,0.42578125,0.015625,0.0703125,-0.0078125
2026-09-07T13:10:47.049327,0.677490234375,0.21246337890625,0.2681884765625,0.65106201171875,0.1484375,-0.0625,0.01953125,-0.02734375,0.0546875,-0.0078125
2026-09-07T13:10:47.148026,0.6754150390625,0.2149658203125,0.2713623046875,0.651123046875,0.109375,-0.25390625,0.29296875,-0.025390625,0.044921875,0.0
2026-09-07T13:10:47.247283,0.67401123046875,0.21624755859375,0.2728271484375,0.65155029296875,-0.23046875,-0.4453125,0.953125,-0.00390625,0.033203125,-0.013671875
2026-09-07T13:10:47.348095,0.67279052734375,0.217529296875,0.2738037109375,0.6519775390625,-0.18359375,-0.0234375,0.55859375,0.0,0.0234375,0.001953125
2026-09-07T13:10:47.448397,0.6727294921875,0.2188720703125,0.2742919921875,0.6513671875,-0.08984375,-0.0625,0.9296875,0.01171875,0.029296875,0.0
2026-09-07T13:10:47.549374,0.6661376953125,0.22100830078125,0.274658203125,0.6572265625,0.3125,-0.265625,-0.203125,0.0078125,0.029296875,0.001953125
2026-09-07T13:10:47.649304,0.66058349609375,0.2225341796875,0.27557373046875,0.66192626953125,-0.1015625,0.203125,-0.2265625,-0.001953125,0.02734375,0.017578125
2026-09-07T13:10:47.747106,0.65838623046875,0.2237548828125,0.2764892578125,0.663330078125,0.1875,0.26953125,-0.390625,-0.005859375,0.037109375,0.0234375
2026-09-07T13:10:47.849162,0.65777587890625,0.225341796875,0.27764892578125,0.66290283203125,0.2265625,-0.359375,0.03125,0.0234375,0.0546875,0.0078125
2026-09-07T13:10:47.957892,0.65777587890625,0.22705078125,0.2791748046875,0.66168212890625,0.1640625,-0.14453125,-0.48828125,0.01171875,0.0546875,-0.00390625
2026-09-07T13:10:48.047874,0.658447265625,0.22943115234375,0.28045654296875,0.65966796875,-0.01953125,0.359375,-0.58203125,-0.033203125,0.060546875,0.01171875
2026-09-07T13:10:48.158125,0.659423828125,0.2320556640625,0.28173828125,0.6572265625,0.1796875,-0.16796875,-0.359375,0.00390625,0.06640625,0.009765625
2026-09-07T13:10:48.238136,0.66119384765625,0.23468017578125,0.283447265625,0.65374755859375,-0.00390625,0.50390625,-0.14453125,0.013671875,0.0703125,0.033203125
2026-09-07T13:10:48.359061,0.662109375,0.23876953125,0.2864990234375,0.6500244140625,0.046875,-0.13671875,-0.3203125,-0.03515625,0.064453125,0.015625
2026-09-07T13:10:48.448505,0.6617431640625,0.23968505859375,0.2874755859375,0.64959716796875,-0.10546875,-0.24609375,0.8359375,-0.0390625,0.037109375,0.01171875
2026-09-07T13:10:48.557844,0.6597900390625,0.2408447265625,0.2894287109375,0.65032958984375,-0.52734375,-0.015625,0.765625,-0.01171875,0.0234375,0.001953125
2026-09-07T13:10:48.656362,0.659423828125,0.2408447265625,0.2900390625,0.650390625,0.12109375,-0.359375,0.28515625,-0.0078125,0.025390625,0.015625
2026-09-07T13:10:48.756105,0.6595458984375,0.2412109375,0.29119873046875,0.64959716796875,-0.1875,-0.27734375,0.421875,0.044921875,0.03125,-0.005859375
2026-09-07T13:10:48.967510,0.6610107421875,0.24365234375,0.29290771484375,0.646484375,-0.38671875,0.296875,-0.79296875,0.056640625,0.076171875,0.01171875
2026-09-07T13:10:49.066143,0.66156005859375,0.248046875,0.2965087890625,0.642578125,-0.42578125,0.453125,-1.4375,0.02734375,0.091796875,0.01953125
2026-09-07T13:10:49.164612,0.65997314453125,0.25091552734375,0.2998046875,0.64154052734375,-0.41796875,0.56640625,-1.015625,-0.017578125,0.087890625,0.01171875
2026-09-07T13:10:49.265152,0.6575927734375,0.253173828125,0.3031005859375,0.6416015625,-0.609375,0.25390625,-0.65625,-0.0234375,0.08203125,0.00390625
2026-09-07T13:10:49.364142,0.65496826171875,0.25494384765625,0.30645751953125,0.64190673828125,-0.37890625,-0.3125,0.7421875,-0.025390625,0.078125,0.013671875
2026-09-07T13:10:49.464380,0.663330078125,0.27056884765625,0.29583740234375,0.6318359375,-0.72265625,-0.33984375,0.265625,0.01953125,0.08984375,0.00390625
2026-09-07T13:10:49.559804,0.66351318359375,0.281005859375,0.29364013671875,0.628173828125,-0.640625,-0.1328125,-0.328125,0.021484375,0.09375,0.00390625
2026-09-07T13:10:49.664765,0.663330078125,0.28253173828125,0.2950439453125,0.62701416015625,-0.6953125,-0.15625,-0.5703125,0.037109375,0.08984375,-0.005859375
2026-09-07T13:10:49.764817,0.66265869140625,0.28558349609375,0.2982177734375,0.62481689453125,-0.51953125,0.15234375,-0.7109375,0.021484375,0.103515625,0.001953125
2026-09-07T13:10:49.864619,0.6611328125,0.28857421875,0.3017578125,0.62335205078125,-0.30859375,-0.30859375,-0.328125,-0.001953125,0.103515625,0.00390625
2026-09-07T13:10:49.965039,0.6593017578125,0.3046875,0.29083251953125,0.62286376953125,0.40625,-0.46875,0.70703125,0.00390625,0.09765625,0.009765625
2026-09-07T13:10:50.065116,0.65740966796875,0.31524658203125,0.28570556640625,0.6219482421875,0.2109375,-0.1328125,0.390625,-0.01171875,0.095703125,0.021484375
2026-09-07T13:10:50.156788,0.65570068359375,0.32171630859375,0.28509521484375,0.6207275390625,-0.08203125,-0.37109375,-0.04296875,0.017578125,0.099609375,0.00390625
2026-09-07T13:10:50.264519,0.65350341796875,0.326171875,0.28662109375,0.6199951171875,0.0703125,0.18359375,-0.05078125,-0.017578125,0.099609375,0.013671875
2026-09-07T13:10:50.365220,0.65155029296875,0.3292236328125,0.28955078125,0.61907958984375,0.12890625,-0.39453125,0.2421875,0.009765625,0.095703125,-0.005859375
2026-09-07T13:10:50.464577,0.64990234375,0.33203125,0.29266357421875,0.61785888671875,-0.12890625,-0.09375,0.140625,0.0,0.095703125,0.005859375
2026-09-07T13:10:50.564555,0.64776611328125,0.3348388671875,0.2955322265625,0.6171875,-0.19921875,0.23828125,0.453125,-0.00390625,0.0859375,-0.009765625
2026-09-07T13:10:50.659038,0.6448974609375,0.33740234375,0.29803466796875,0.61761474609375,-0.3671875,0.6796875,-0.359375,0.005859375,0.08203125,-0.0078125
2026-09-07T13:10:50.759240,0.64117431640625,0.33917236328125,0.3011474609375,0.6190185546875,-0.328125,0.6875,0.12890625,-0.0390625,0.076171875,0.017578125
2026-09-07T13:10:50.859266,0.637939453125,0.341064453125,0.30389404296875,0.6199951171875,-0.5390625,-0.41796875,0.83984375,-0.001953125,0.072265625,0.017578125
2026-09-07T13:10:50.962635,0.63653564453125,0.34307861328125,0.30615234375,0.61920166015625,-0.28515625,0.12109375,0.51171875,0.015625,0.068359375,-0.009765625
2026-09-07T13:10:51.071747,0.63592529296875,0.3448486328125,0.30816650390625,0.61785888671875,0.0234375,0.359375,0.03515625,-0.013671875,0.056640625,0.0078125
2026-09-07T13:10:51.170874,0.63458251953125,0.346435546875,0.30999755859375,0.61737060546875,0.0234375,0.17578125,0.2421875,-0.001953125,0.0546875,-0.0078125
2026-09-07T13:10:51.271551,0.63311767578125,0.347900390625,0.31195068359375,0.6170654296875,-0.25390625,0.14453125,0.1328125,-0.029296875,0.056640625,0.005859375
2026-09-07T13:10:51.370943,0.63043212890625,0.3486328125,0.314697265625,0.61810302734375,-0.22265625,-0.0390625,0.1328125,-0.00390625,0.052734375,-0.01171875
2026-09-07T13:10:51.471003,0.6279296875,0.34942626953125,0.31695556640625,0.6190185546875,-0.30078125,-0.19140625,0.34765625,0.00390625,0.03125,0.0234375
2026-09-07T13:10:51.575546,0.626220703125,0.3504638671875,0.3182373046875,0.61944580078125,-0.63671875,0.08984375,-0.01953125,-0.00390625,0.037109375,0.005859375
2026-09-07T13:10:51.672836,0.624755859375,0.35125732421875,0.319580078125,0.61981201171875,0.20703125,0.08203125,0.1953125,-0.015625,0.03125,0.041015625
2026-09-07T13:10:51.775423,0.61932373046875,0.35357666015625,0.3193359375,0.62408447265625,0.12109375,0.0625,-0.01953125,0.0,0.033203125,0.01953125
2026-09-07T13:10:51.877907,0.61376953125,0.355712890625,0.31890869140625,0.62860107421875,0.48828125,-0.21484375,-0.12890625,-0.001953125,0.02734375,0.033203125
2026-09-07T13:10:51.979548,0.610595703125,0.35614013671875,0.320068359375,0.63079833984375,0.19921875,-0.3828125,0.40234375,0.001953125,0.03125,0.013671875
2026-09-07T13:10:52.077981,0.609375,0.35552978515625,0.32244873046875,0.631103515625,0.3515625,0.16015625,0.140625,0.001953125,0.0234375,0.013671875
2026-09-07T13:10:52.174510,0.60906982421875,0.35601806640625,0.32354736328125,0.63055419921875,0.2890625,-0.21484375,0.125,0.0,0.021484375,-0.01171875
2026-09-07T13:10:52.274647,0.6082763671875,0.35650634765625,0.3243408203125,0.630615234375,0.10546875,0.4453125,0.0390625,-0.02734375,0.013671875,0.01953125
2026-09-07T13:10:52.370518,0.60791015625,0.35687255859375,0.324951171875,0.6304931640625,0.10546875,-0.10546875,0.11328125,0.0078125,0.009765625,0.01171875
2026-09-07T13:10:52.474213,0.6075439453125,0.3477783203125,0.33453369140625,0.630859375,-0.1328125,-0.18359375,-0.1328125,0.01953125,0.015625,-0.001953125
2026-09-07T13:10:52.574663,0.60723876953125,0.3438720703125,0.339111328125,0.630859375,0.22265625,-0.12109375,-0.125,0.0,0.01171875,0.00390625
2026-09-07T13:10:52.674888,0.60687255859375,0.3416748046875,0.34222412109375,-1.3692626953125,0.12890625,0.1875,0.0390625,0.025390625,0.01171875,-0.0078125
2026-09-07T13:10:52.775069,0.60687255859375,0.340087890625,0.34454345703125,0.63037109375,0.3515625,0.1484375,0.24609375,-0.001953125,0.009765625,0.0
2026-09-07T13:10:52.874901,0.6065673828125,0.338623046875,0.34674072265625,0.63018798828125,0.04296875,0.11328125,-0.109375,0.009765625,0.015625,-0.00390625
2026-09-07T13:10:52.974617,0.6068115234375,0.33709716796875,0.34912109375,0.6295166015625,0.05859375,-0.11328125,0.15234375,0.00390625,0.017578125,0.00390625
2026-09-07T13:10:53.074791,0.60699462890625,0.33551025390625,0.3514404296875,0.62884521484375,0.0703125,0.0703125,0.13671875,-0.01171875,0.01171875,0.01953125
2026-09-07T13:10:53.174719,0.607177734375,0.333740234375,0.35394287109375,0.62823486328125,0.22265625,-0.20703125,0.02734375,0.015625,0.009765625,0.0
2026-09-07T13:10:53.274213,0.6072998046875,0.33184814453125,0.35650634765625,0.627685546875,0.15234375,0.03125,-0.015625,-0.01171875,0.01171875,0.017578125
2026-09-07T13:10:53.374468,0.607421875,0.33013916015625,0.35888671875,0.62713623046875,0.05859375,-0.12109375,0.12890625,-0.009765625,0.009765625,0.0
2026-09-07T13:10:53.474739,0.6075439453125,0.32843017578125,0.36114501953125,0.6265869140625,-0.015625,0.109375,-0.125,0.0,0.01171875,0.005859375
2026-09-07T13:10:53.574701,0.60784912109375,0.326904296875,0.3634033203125,0.625732421875,0.03515625,0.30078125,0.02734375,0.0,0.009765625,0.00390625
2026-09-07T13:10:53.674050,0.60797119140625,0.325439453125,0.36541748046875,0.625244140625,-0.00390625,-0.18359375,0.18359375,-0.017578125,0.0078125,0.0
2026-09-07T13:10:53.773181,0.60809326171875,0.32427978515625,0.36712646484375,0.62469482421875,0.11328125,0.23828125,-0.046875,0.0,0.01171875,0.005859375
2026-09-07T13:10:53.874312,0.60821533203125,0.323486328125,0.36859130859375,0.6241455078125,-0.05859375,0.0546875,-0.01953125,-0.00390625,0.01171875,0.005859375
2026-09-07T13:10:53.975137,0.60797119140625,0.32275390625,0.3699951171875,0.62396240234375,-0.11328125,0.11328125,0.00390625,-0.00390625,0.013671875,0.00390625
2026-09-07T13:10:54.075405,0.607666015625,0.3221435546875,0.371337890625,0.62371826171875,0.1015625,-0.49609375,0.2109375,-0.001953125,0.013671875,0.005859375
2026-09-07T13:10:54.174883,0.60784912109375,0.32183837890625,0.37237548828125,0.623046875,0.1953125,-0.20703125,0.203125,0.00390625,0.009765625,0.0
2026-09-07T13:10:54.274055,0.60791015625,0.32135009765625,0.37359619140625,0.62261962890625,0.109375,-0.14453125,0.1484375,-0.0078125,0.01171875,0.005859375
2026-09-07T13:10:54.376514,0.608154296875,0.3199462890625,0.37554931640625,0.62188720703125,0.03125,0.5390625,-0.203125,0.0,0.01171875,0.001953125
2026-09-07T13:10:54.475877,0.6082763671875,0.31884765625,0.37713623046875,0.621337890625,0.19921875,-0.265625,-0.1171875,-0.009765625,0.00390625,0.013671875
2026-09-07T13:10:54.575580,0.6082763671875,0.31842041015625,0.37799072265625,0.62109375,0.0,0.1328125,0.11328125,0.0078125,0.0078125,-0.005859375
2026-09-07T13:10:54.675902,0.6083984375,0.318359375,0.3787841796875,0.6204833984375,-0.015625,0.046875,0.08984375,-0.0078125,0.009765625,0.017578125
2026-09-07T13:10:54.782803,0.608642578125,0.31781005859375,0.37982177734375,0.619873046875,0.046875,-0.2421875,0.05859375,-0.0390625,0.0,0.009765625
2026-09-07T13:10:54.875491,0.60791015625,0.3167724609375,0.380859375,0.62054443359375,-0.328125,0.35546875,0.05078125,0.0,0.0,-0.005859375
2026-09-07T13:10:54.984403,0.6077880859375,0.31634521484375,0.3812255859375,0.62066650390625,-0.40625,0.3828125,0.0234375,-0.01171875,-0.0078125,0.001953125
2026-09-07T13:10:55.081912,0.606689453125,0.31488037109375,0.38226318359375,0.621826171875,-0.21484375,0.13671875,0.046875,-0.029296875,-0.0078125,0.0078125
2026-09-07T13:10:55.174685,0.60595703125,0.313720703125,0.3826904296875,0.622802734375,-0.08984375,-0.09765625,0.84375,0.013671875,-0.013671875,0.00390625
2026-09-07T13:10:55.284405,0.605224609375,0.31268310546875,0.38330078125,0.62371826171875,-0.18359375,0.5390625,-0.0546875,0.013671875,-0.01953125,-0.0078125
2026-09-07T13:10:55.371798,0.60296630859375,0.310302734375,0.3839111328125,0.62664794921875,0.30078125,0.1171875,-0.1953125,-0.009765625,-0.025390625,0.00390625
2026-09-07T13:10:55.472471,0.60272216796875,0.3099365234375,0.38360595703125,0.62725830078125,-0.14453125,0.03125,-0.046875,-0.01171875,-0.025390625,0.01953125
2026-09-07T13:10:55.573596,0.6025390625,0.30902099609375,0.383056640625,0.62823486328125,-0.171875,0.25390625,0.08203125,-0.0078125,-0.0234375,0.00390625
2026-09-07T13:10:55.683117,0.6024169921875,0.30859375,0.382080078125,0.62921142578125,-0.27734375,-0.39453125,-0.0546875,-0.017578125,-0.01953125,-0.005859375
2026-09-07T13:10:55.772234,0.6005859375,0.3094482421875,0.37939453125,0.63214111328125,-0.71484375,0.234375,-0.15234375,-0.017578125,-0.01953125,-0.0078125
2026-09-07T13:10:55.872917,0.599853515625,0.31036376953125,0.3778076171875,0.63330078125,-0.3359375,0.6328125,-0.31640625,-0.02734375,-0.0234375,-0.02734375
2026-09-07T13:10:55.972609,0.5980224609375,0.31195068359375,0.374755859375,0.6361083984375,-0.08203125,-0.14453125,0.55859375,0.009765625,-0.025390625,-0.0390625
2026-09-07T13:10:56.073016,0.5970458984375,0.31390380859375,0.37127685546875,0.6380615234375,-0.35546875,-0.13671875,0.28125,-0.021484375,-0.03515625,0.013671875
2026-09-07T13:10:56.172676,0.59552001953125,0.3150634765625,0.3681640625,0.6407470703125,-0.296875,0.1015625,0.01953125,-0.037109375,-0.04296875,0.00390625
2026-09-07T13:10:56.273574,0.59356689453125,0.31585693359375,0.364990234375,0.64398193359375,-0.296875,-0.3515625,0.64453125,0.0,-0.048828125,0.00390625
2026-09-07T13:10:56.373224,0.5924072265625,0.31610107421875,0.3623046875,0.64642333984375,0.62890625,-0.2734375,0.09375,-0.0078125,-0.044921875,0.017578125
2026-09-07T13:10:56.472833,0.59136962890625,0.3154296875,0.360595703125,0.648681640625,0.05078125,-0.0234375,-0.20703125,0.013671875,-0.0390625,-0.0078125
2026-09-07T13:10:56.578893,0.59124755859375,0.3138427734375,0.35980224609375,0.64996337890625,0.46875,-0.21875,-0.01171875,0.01171875,-0.037109375,-0.015625
2026-09-07T13:10:56.671375,0.5924072265625,0.3109130859375,0.35894775390625,0.65081787109375,-0.23046875,0.1953125,0.21875,0.00390625,-0.037109375,-0.005859375
2026-09-07T13:10:56.780353,0.5928955078125,0.31005859375,0.35845947265625,0.6510009765625,-0.20703125,-0.07421875,-0.09765625,0.01171875,-0.041015625,0.001953125
2026-09-07T13:10:56.871739,0.59454345703125,0.3072509765625,0.357666015625,0.6512451171875,0.20703125,-0.21875,0.4375,0.01953125,-0.037109375,0.0078125
2026-09-07T13:10:56.980156,0.594970703125,0.30621337890625,0.35736083984375,0.65155029296875,-0.11328125,0.01171875,-0.15625,-0.009765625,-0.0390625,-0.01171875
2026-09-07T13:10:57.069320,0.59588623046875,0.3038330078125,0.35589599609375,0.65264892578125,0.17578125,0.0859375,-0.109375,0.00390625,-0.03515625,-0.025390625
2026-09-07T13:10:57.180149,0.59619140625,0.30316162109375,0.35540771484375,0.6529541015625,-0.12109375,-0.13671875,0.1953125,-0.013671875,-0.046875,-0.0078125
2026-09-07T13:10:57.279634,0.596923828125,0.30084228515625,0.35369873046875,0.654296875,0.30078125,-0.20703125,0.234375,0.0078125,-0.05078125,0.00390625
2026-09-07T13:10:57.381023,0.59783935546875,0.2991943359375,0.352294921875,0.6549072265625,0.0703125,-0.2109375,0.29296875,0.01953125,-0.05078125,0.005859375
2026-09-07T13:10:57.489904,0.5986328125,0.29754638671875,0.35101318359375,0.65570068359375,0.015625,0.25390625,0.140625,0.0078125,-0.048828125,-0.00390625
2026-09-07T13:10:57.578775,0.59918212890625,0.2957763671875,0.3497314453125,0.65667724609375,0.015625,0.03125,-0.06640625,0.01171875,-0.048828125,0.001953125
2026-09-07T13:10:57.688356,0.60003662109375,0.294189453125,0.3482666015625,0.6573486328125,0.1015625,-0.05859375,-0.16015625,-0.005859375,-0.048828125,0.0
2026-09-07T13:10:57.779962,0.6005859375,0.29254150390625,0.346923828125,0.6583251953125,0.03125,0.26171875,-0.1640625,-0.00390625,-0.046875,0.00390625
2026-09-07T13:10:57.889498,0.60174560546875,0.29022216796875,0.3448486328125,0.65936279296875,-0.05078125,-0.20703125,0.2578125,-0.00390625,-0.048828125,0.005859375
2026-09-07T13:10:57.980008,0.60205078125,0.28936767578125,0.34417724609375,0.6597900390625,0.0,-0.0234375,0.0859375,-0.001953125,-0.05078125,-0.00390625
2026-09-07T13:10:58.079839,0.60260009765625,0.28765869140625,0.342529296875,0.66094970703125,0.0703125,-0.0078125,0.1484375,-0.0078125,-0.052734375,-0.00390625
2026-09-07T13:10:58.190025,0.603271484375,0.2852783203125,0.33990478515625,0.6627197265625,-0.328125,0.0625,0.171875,-0.0078125,-0.048828125,-0.009765625
2026-09-07T13:10:58.279861,0.603271484375,0.28448486328125,0.33905029296875,0.6634521484375,-0.03515625,-0.19921875,-0.05859375,-0.0234375,-0.0546875,-0.0078125
2026-09-07T13:10:58.389359,0.60302734375,0.283935546875,0.33477783203125,0.66607666015625,-0.33984375,0.1015625,-0.1640625,-0.015625,-0.052734375,-0.001953125
2026-09-07T13:10:58.488416,0.60272216796875,0.28466796875,0.33258056640625,0.6671142578125,-0.16796875,0.1484375,-0.03515625,-0.015625,-0.052734375,-0.009765625
2026-09-07T13:10:58.567529,0.6019287109375,0.2857666015625,0.328369140625,0.66949462890625,-0.00390625,0.09375,-0.03515625,-0.01171875,-0.052734375,-0.017578125
2026-09-07T13:10:58.675261,0.60174560546875,0.2861328125,0.326416015625,0.67047119140625,-0.2265625,-0.06640625,0.1875,-0.005859375,-0.05078125,0.0
2026-09-07T13:10:58.790233,0.60107421875,0.28717041015625,0.3192138671875,0.674072265625,-0.45703125,0.25390625,-0.1640625,-0.009765625,-0.0546875,-0.017578125
2026-09-07T13:10:58.887887,0.6011962890625,0.28790283203125,0.3153076171875,0.67547607421875,0.13671875,-0.3203125,0.27734375,-0.00390625,-0.05078125,0.001953125
2026-09-07T13:10:58.987549,0.60113525390625,0.28814697265625,0.3134765625,0.67626953125,-0.0546875,-0.2578125,-0.05859375,-0.00390625,-0.05078125,-0.005859375
2026-09-07T13:10:59.087820,0.60107421875,0.288818359375,0.30816650390625,0.678466796875,0.0390625,-0.01953125,-0.125,0.00390625,-0.05078125,-0.009765625
2026-09-07T13:10:59.172605,0.6011962890625,0.2890625,0.30633544921875,-1.3209228515625,0.0703125,0.27734375,-0.07421875,-0.015625,-0.046875,-0.0078125
2026-09-07T13:10:59.290799,0.6014404296875,0.2891845703125,0.3017578125,0.68084716796875,-0.26953125,0.19921875,-0.36328125,-0.001953125,-0.048828125,-0.01171875
2026-09-07T13:10:59.387474,0.601806640625,0.2894287109375,0.29852294921875,0.681884765625,0.109375,-0.53515625,-0.0859375,-0.001953125,-0.052734375,-0.01171875
2026-09-07T13:10:59.490522,0.60205078125,0.28924560546875,0.295654296875,0.68292236328125,-0.05859375,0.17578125,0.00390625,-0.015625,-0.046875,-0.0078125
2026-09-07T13:10:59.587784,0.602783203125,0.28955078125,0.29241943359375,0.68359375,-0.13671875,-0.015625,-0.01953125,0.009765625,-0.046875,-0.029296875
2026-09-07T13:10:59.674433,0.6029052734375,0.28961181640625,0.290771484375,0.68414306640625,0.1953125,0.078125,-0.0390625,-0.00390625,-0.05078125,0.0
2026-09-07T13:10:59.906327,0.60455322265625,0.287353515625,0.28546142578125,0.6859130859375,0.46484375,-0.18359375,-0.1484375,-0.00390625,-0.046875,0.0078125
2026-09-07T13:10:59.995262,0.6058349609375,0.28448486328125,0.284912109375,0.68621826171875,0.2265625,0.046875,0.15625,0.00390625,-0.048828125,-0.015625
2026-09-07T13:11:00.093632,0.6065673828125,0.2825927734375,0.28509521484375,0.68621826171875,0.1875,-0.05078125,-0.04296875,0.001953125,-0.048828125,-0.005859375
2026-09-07T13:11:00.192999,0.60809326171875,0.279052734375,0.2855224609375,0.68621826171875,-0.3125,-0.05859375,0.37109375,0.013671875,-0.04296875,-0.025390625
2026-09-07T13:11:00.292804,0.60986328125,0.2755126953125,0.28564453125,0.68597412109375,-0.22265625,0.109375,0.234375,0.015625,-0.05078125,-0.005859375
2026-09-07T13:11:00.393487,0.61114501953125,0.2723388671875,0.28546142578125,0.6861572265625,0.15625,0.09375,-0.1640625,0.001953125,-0.048828125,-0.0078125
2026-09-07T13:11:00.494113,0.61181640625,0.2701416015625,0.28448486328125,0.68682861328125,0.046875,-0.17578125,0.00390625,-0.01171875,-0.046875,-0.00390625
2026-09-07T13:11:00.592982,0.61285400390625,0.2684326171875,0.28326416015625,0.6871337890625,0.015625,-0.05078125,0.2421875,0.009765625,-0.0390625,-0.021484375
2026-09-07T13:11:00.693226,0.6142578125,0.26715087890625,0.28204345703125,0.6868896484375,-0.03515625,0.109375,-0.09375,-0.001953125,-0.037109375,0.001953125
2026-09-07T13:11:00.790012,0.61669921875,0.265380859375,0.28076171875,0.6859130859375,0.22265625,-0.09765625,-0.32421875,0.013671875,-0.029296875,0.005859375
2026-09-07T13:11:00.893485,0.6180419921875,0.26470947265625,0.28076171875,0.6849365234375,0.4375,0.1328125,-0.2578125,0.01171875,-0.017578125,0.0
2026-09-07T13:11:00.994294,0.6214599609375,0.26324462890625,0.2813720703125,0.68212890625,0.43359375,0.10546875,-0.2265625,-0.009765625,-0.0078125,0.00390625
2026-09-07T13:11:01.094076,0.6248779296875,0.26153564453125,0.28253173828125,0.67919921875,0.1484375,-0.22265625,0.1953125,-0.001953125,-0.0078125,0.005859375
2026-09-07T13:11:01.193290,0.627685546875,0.25970458984375,0.28363037109375,0.67681884765625,-0.02734375,0.03125,0.25,-0.005859375,-0.009765625,-0.009765625
2026-09-07T13:11:01.285531,0.62982177734375,0.2576904296875,0.28466796875,0.6751708984375,-0.015625,0.17578125,0.25,-0.0078125,-0.013671875,0.00390625
2026-09-07T13:11:01.393157,0.63128662109375,0.25555419921875,0.28564453125,0.67425537109375,-0.0078125,0.16796875,-0.04296875,0.013671875,-0.01953125,0.0078125
2026-09-07T13:11:01.493107,0.63177490234375,0.25390625,0.28619384765625,0.6741943359375,0.15234375,0.0703125,-0.015625,0.0078125,-0.015625,0.00390625
2026-09-07T13:11:01.600571,0.63232421875,0.252197265625,0.28729248046875,0.673828125,0.21484375,-0.0078125,-0.20703125,0.0,-0.00390625,0.017578125
2026-09-07T13:11:01.692610,0.63323974609375,0.25018310546875,0.2890625,0.6729736328125,0.21484375,-0.015625,-0.296875,-0.0234375,0.0,0.013671875
2026-09-07T13:11:01.789138,0.63427734375,0.248291015625,0.290771484375,0.67193603515625,0.04296875,-0.12109375,0.02734375,-0.009765625,0.0,0.005859375
2026-09-07T13:11:01.900405,0.63543701171875,0.2467041015625,0.292236328125,0.6707763671875,0.03515625,-0.2890625,0.05078125,-0.0078125,0.00390625,0.001953125
2026-09-07T13:11:02.121144,0.63580322265625,0.245361328125,0.29315185546875,0.6705322265625,-0.3984375,0.109375,0.03515625,0.0,0.0,-0.015625
2026-09-07T13:11:02.206003,0.635986328125,0.2452392578125,0.293212890625,0.67041015625,-0.296875,0.0078125,-0.03515625,-0.00390625,-0.001953125,-0.0078125
2026-09-07T13:11:02.298697,0.6358642578125,0.245361328125,0.29302978515625,0.6705322265625,-0.19921875,-0.05859375,0.00390625,-0.009765625,-0.00390625,0.009765625
2026-09-07T13:11:02.407536,0.63568115234375,0.24591064453125,0.2923583984375,0.6707763671875,-0.29296875,-0.05078125,0.04296875,-0.001953125,0.0,0.001953125
2026-09-07T13:11:02.508048,0.63531494140625,0.2486572265625,0.28973388671875,0.6712646484375,-0.140625,-0.18359375,0.15625,0.001953125,-0.00390625,0.005859375
2026-09-07T13:11:02.606896,0.635009765625,0.25115966796875,0.287353515625,0.671630859375,0.07421875,0.1015625,-0.1796875,-0.001953125,0.0,-0.0078125
2026-09-07T13:11:02.707044,0.63458251953125,0.253173828125,0.28533935546875,0.672119140625,0.34375,-0.0390625,-0.11328125,0.0078125,-0.001953125,-0.00390625
2026-09-07T13:11:02.799413,0.6343994140625,0.25390625,0.28460693359375,0.67236328125,0.140625,-0.234375,0.265625,-0.001953125,-0.001953125,0.00390625
2026-09-07T13:11:02.904424,0.62664794921875,0.25433349609375,0.28411865234375,0.67236328125,0.36328125,-0.1796875,0.15625,0.009765625,-0.001953125,-0.017578125
2026-09-07T13:11:03.007988,0.6346435546875,0.25439453125,0.283935546875,0.6722412109375,0.09375,-0.1640625,-0.09765625,-0.00390625,0.001953125,-0.0078125
2026-09-07T13:11:03.107419,0.63482666015625,0.2540283203125,0.28436279296875,0.6719970703125,0.13671875,-0.02734375,-0.234375,0.01171875,-0.001953125,-0.001953125
2026-09-07T13:11:03.207909,0.6351318359375,0.25299072265625,0.28521728515625,0.67181396484375,0.15234375,-0.09765625,0.35546875,0.013671875,-0.001953125,-0.01953125
2026-09-07T13:11:03.308714,0.6353759765625,0.25225830078125,0.28564453125,0.67156982421875,0.0078125,-0.13671875,-0.07421875,-0.021484375,0.0,0.0078125
2026-09-07T13:11:03.407626,0.6356201171875,0.2510986328125,0.28668212890625,0.67138671875,0.13671875,-0.11328125,-0.01953125,0.0,-0.001953125,0.009765625
2026-09-07T13:11:03.508976,0.63592529296875,0.2498779296875,0.28778076171875,0.67108154296875,0.16015625,0.40234375,0.0546875,-0.001953125,-0.00390625,0.01171875
2026-09-07T13:11:03.608740,0.63616943359375,0.2491455078125,0.28826904296875,0.6708984375,-0.24609375,0.0,-0.17578125,-0.0078125,0.0,0.00390625
2026-09-07T13:11:03.716335,0.63629150390625,0.2481689453125,0.28912353515625,0.6707763671875,-0.0390625,-0.265625,-0.1953125,-0.005859375,-0.00390625,-0.005859375
2026-09-07T13:11:03.799746,0.636474609375,0.24786376953125,0.2891845703125,0.67071533203125,-0.23828125,0.4453125,-0.05078125,0.0,-0.001953125,-0.009765625
2026-09-07T13:11:03.901011,0.6363525390625,0.247802734375,0.28924560546875,0.6707763671875,0.0078125,0.22265625,0.1640625,0.013671875,0.0,0.005859375
2026-09-07T13:11:04.016956,0.63641357421875,0.24798583984375,0.2890625,0.67071533203125,0.109375,0.0546875,-0.05859375,-0.025390625,-0.00390625,0.005859375
2026-09-07T13:11:04.116288,0.635986328125,0.2479248046875,0.28900146484375,0.67120361328125,0.27734375,-0.50390625,0.1640625,0.005859375,-0.001953125,0.009765625
2026-09-07T13:11:04.215957,0.63604736328125,0.24822998046875,0.288818359375,0.671142578125,-0.05078125,-0.046875,0.234375,-0.0078125,-0.001953125,0.013671875
2026-09-07T13:11:04.305322,0.63604736328125,0.248291015625,0.28857421875,0.67120361328125,0.24609375,-0.25,0.0390625,0.001953125,-0.00390625,0.001953125
2026-09-07T13:11:04.405588,0.63604736328125,0.24822998046875,0.28851318359375,0.6712646484375,0.25390625,0.140625,-0.15234375,0.00390625,-0.00390625,0.001953125
2026-09-07T13:11:04.506629,0.635986328125,0.2479248046875,0.28851318359375,0.67138671875,0.23046875,0.30859375,-0.375,0.001953125,-0.001953125,-0.00390625
2026-09-07T13:11:04.605989,0.63592529296875,0.2476806640625,0.28863525390625,0.6715087890625,0.08203125,0.0234375,-0.00390625,0.001953125,0.00390625,-0.009765625
2026-09-07T13:11:04.706225,0.63604736328125,0.24713134765625,0.2890625,0.67138671875,0.23046875,-0.15234375,0.0859375,-0.009765625,0.00390625,0.0
2026-09-07T13:11:04.806814,0.63623046875,0.2467041015625,0.28955078125,0.67120361328125,0.09765625,-0.55078125,0.26953125,-0.001953125,-0.00390625,0.029296875
2026-09-07T13:11:04.901735,0.63653564453125,0.24615478515625,0.28997802734375,0.67095947265625,-0.140625,0.19140625,-0.07421875,0.0078125,-0.005859375,-0.005859375
2026-09-07T13:11:05.006624,0.63641357421875,0.24530029296875,0.29046630859375,0.671142578125,0.234375,0.24609375,0.046875,-0.01171875,-0.00390625,0.013671875
2026-09-07T13:11:05.105940,0.636474609375,0.24462890625,0.2911376953125,0.67108154296875,-0.1875,-0.13671875,0.03515625,-0.013671875,-0.001953125,0.01953125
2026-09-07T13:11:05.205903,0.63653564453125,0.243896484375,0.29180908203125,0.67095947265625,0.02734375,0.03125,-0.03515625,-0.00390625,-0.001953125,0.013671875
2026-09-07T13:11:05.306276,0.63677978515625,0.24334716796875,0.2923583984375,0.670654296875,0.02734375,-0.0234375,-0.1875,-0.001953125,-0.00390625,0.015625
2026-09-07T13:11:05.404703,0.6370849609375,0.2427978515625,0.29302978515625,0.67034912109375,-0.203125,0.4140625,-0.12109375,0.01171875,0.00390625,-0.00390625
2026-09-07T13:11:05.513239,0.6370849609375,0.24237060546875,0.29345703125,0.6702880859375,-0.05859375,0.0078125,-0.02734375,-0.00390625,0.005859375,0.009765625
2026-09-07T13:11:05.604401,0.6376953125,0.2423095703125,0.2940673828125,0.66943359375,-0.00390625,-0.10546875,-0.05078125,0.0234375,0.01171875,0.0
2026-09-07T13:11:05.712464,0.63787841796875,0.2423095703125,0.29443359375,0.6690673828125,0.01953125,0.20703125,-0.21875,0.009765625,0.017578125,0.001953125
2026-09-07T13:11:05.805199,0.6390380859375,0.2427978515625,-1.70428466796875,0.66729736328125,-0.08203125,0.0,-0.1875,0.015625,0.02734375,-0.0078125
2026-09-07T13:11:05.900749,0.64031982421875,0.242919921875,-1.70355224609375,0.66571044921875,0.01171875,0.34765625,-0.359375,-0.001953125,0.03515625,-0.005859375
2026-09-07T13:11:06.014110,0.64208984375,0.2435302734375,0.2979736328125,0.6630859375,0.05078125,0.078125,-0.7109375,-0.00390625,0.052734375,-0.01953125
2026-09-07T13:11:06.112354,0.64434814453125,0.2462158203125,0.2996826171875,0.6590576171875,-0.39453125,-0.18359375,-0.46484375,-0.001953125,0.052734375,0.00390625
2026-09-07T13:11:06.211455,0.64605712890625,0.2496337890625,0.29986572265625,0.656005859375,0.00390625,-0.078125,0.07421875,0.0,0.0625,0.009765625
2026-09-07T13:11:06.311838,0.6474609375,0.2535400390625,0.2999267578125,0.65313720703125,-0.0859375,0.27734375,-0.31640625,0.009765625,0.06640625,-0.015625
2026-09-07T13:11:06.403575,0.648193359375,0.2579345703125,0.29974365234375,0.6507568359375,-0.328125,-0.21484375,0.0078125,0.009765625,0.0625,-0.009765625
2026-09-07T13:11:06.522236,0.64837646484375,0.26025390625,0.2994384765625,0.6497802734375,-0.49609375,0.421875,-0.3359375,-0.04296875,0.060546875,0.0078125
2026-09-07T13:11:06.603650,0.64739990234375,0.26763916015625,0.29791259765625,0.6484375,-0.26171875,-0.171875,0.46875,-0.009765625,0.060546875,0.00390625
2026-09-07T13:11:06.713702,0.647216796875,0.27020263671875,0.29736328125,0.6478271484375,-0.10546875,0.06640625,0.3046875,0.0,0.056640625,0.0078125
2026-09-07T13:11:06.821283,0.64520263671875,0.27728271484375,0.2960205078125,0.6474609375,-0.2109375,-0.0390625,0.16796875,-0.00390625,0.052734375,0.033203125
2026-09-07T13:11:06.899244,0.64349365234375,0.28192138671875,0.29498291015625,0.6475830078125,0.07421875,0.03125,-0.0859375,0.001953125,0.0546875,0.015625
2026-09-07T13:11:07.021904,0.64263916015625,0.28411865234375,0.2945556640625,0.647705078125,0.04296875,-0.140625,-0.1015625,-0.0078125,0.05078125,0.009765625
2026-09-07T13:11:07.112512,0.63995361328125,0.2901611328125,0.29364013671875,0.6480712890625,0.01953125,-0.015625,0.12109375,-0.001953125,0.052734375,-0.00390625
2026-09-07T13:11:07.222086,0.63848876953125,0.2939453125,0.29315185546875,0.64801025390625,-0.24609375,0.13671875,0.296875,0.009765625,0.044921875,0.015625
2026-09-07T13:11:07.312450,0.63702392578125,0.2972412109375,0.2928466796875,0.64813232421875,0.3359375,0.23828125,-0.1015625,0.0,0.044921875,-0.00390625
2026-09-07T13:11:07.400937,0.63525390625,0.29974365234375,0.29315185546875,0.64862060546875,0.2421875,0.10546875,0.04296875,0.0,0.04296875,0.015625
2026-09-07T13:11:07.501391,0.6348876953125,0.300537109375,0.2938232421875,0.64825439453125,0.32421875,0.19140625,0.01953125,0.009765625,0.05078125,0.001953125
2026-09-07T13:11:07.600711,0.63427734375,0.3016357421875,0.2957763671875,0.64752197265625,0.33984375,-0.22265625,-0.2109375,-0.0078125,0.044921875,0.0234375
2026-09-07T13:11:07.700834,0.633544921875,0.30224609375,0.2982177734375,0.64678955078125,0.15234375,-0.1171875,-0.140625,0.013671875,0.05078125,0.005859375
2026-09-07T13:11:07.823316,0.63311767578125,0.30352783203125,0.30303955078125,0.64434814453125,0.08984375,0.26171875,-0.00390625,0.001953125,0.046875,0.029296875
2026-09-07T13:11:07.920011,0.633056640625,0.3037109375,0.3043212890625,0.64373779296875,0.05078125,-0.1171875,-0.04296875,0.00390625,0.046875,0.0078125
2026-09-07T13:11:08.020348,0.63262939453125,0.30413818359375,0.3067626953125,0.64276123046875,-0.125,-0.03125,0.1875,-0.001953125,0.04296875,0.029296875
2026-09-07T13:11:08.120377,0.63238525390625,0.30474853515625,0.30908203125,0.64166259765625,-0.0078125,0.16015625,0.02734375,0.01953125,0.048828125,0.00390625
2026-09-07T13:11:08.216981,0.63177490234375,0.3055419921875,0.311279296875,0.64080810546875,0.11328125,-0.0546875,0.06640625,-0.001953125,0.048828125,0.0078125
2026-09-07T13:11:08.319553,0.63116455078125,0.30712890625,0.31427001953125,0.63916015625,-0.046875,0.08203125,0.33984375,0.001953125,0.05078125,0.00390625
2026-09-07T13:11:08.419832,0.63067626953125,0.30810546875,0.31610107421875,0.6383056640625,0.12109375,-0.23046875,-0.2421875,0.013671875,0.044921875,-0.001953125
2026-09-07T13:11:08.520109,0.6298828125,0.30908203125,0.31805419921875,0.63763427734375,0.1953125,0.05859375,-0.15625,0.001953125,0.044921875,0.01171875
2026-09-07T13:11:08.620079,0.62933349609375,0.3099365234375,0.320068359375,0.63671875,-0.0625,-0.19140625,-0.05859375,0.005859375,0.044921875,0.0078125
2026-09-07T13:11:08.719851,0.628662109375,0.3109130859375,0.322021484375,0.635986328125,0.05078125,-0.1015625,-0.01953125,-0.001953125,0.04296875,0.02734375
2026-09-07T13:11:08.822925,0.62786865234375,0.31182861328125,0.323974609375,0.63531494140625,-0.140625,0.0234375,-0.38671875,0.005859375,0.041015625,0.017578125
2026-09-07T13:11:08.922865,0.627197265625,0.31280517578125,0.32568359375,0.63458251953125,-0.0234375,-0.21484375,-0.08203125,-0.005859375,0.04296875,0.0234375
2026-09-07T13:11:09.022414,0.62628173828125,0.3140869140625,0.3271484375,0.6341552734375,-0.30859375,0.24609375,-0.05859375,-0.005859375,0.041015625,0.01171875
2026-09-07T13:11:09.143095,0.62518310546875,0.31524658203125,0.3284912109375,0.6339111328125,-0.03125,-0.19921875,0.1796875,-0.001953125,0.041015625,0.0
2026-09-07T13:11:09.221850,0.6246337890625,0.31671142578125,0.32952880859375,0.63323974609375,0.19921875,-0.24609375,0.2421875,0.00390625,0.041015625,0.009765625
2026-09-07T13:11:09.323814,0.623779296875,0.31793212890625,0.33062744140625,0.63287353515625,0.08203125,0.0625,0.1640625,0.00390625,0.03515625,0.00390625
2026-09-07T13:11:09.423939,0.6229248046875,0.3187255859375,0.33203125,0.632568359375,0.2421875,0.07421875,0.0625,-0.001953125,0.03515625,0.03125
2026-09-07T13:11:09.524121,0.6221923828125,0.31927490234375,0.33349609375,0.6322021484375,0.3203125,0.0078125,0.24609375,-0.01171875,0.029296875,0.021484375
2026-09-07T13:11:09.619835,0.62158203125,0.31951904296875,0.33502197265625,0.63189697265625,-0.09765625,-0.19140625,0.17578125,0.009765625,0.029296875,-0.0078125
2026-09-07T13:11:09.719918,0.6214599609375,0.3197021484375,0.33642578125,0.63116455078125,0.0546875,0.0625,-0.0703125,0.0,0.029296875,0.005859375
2026-09-07T13:11:09.820250,0.6212158203125,0.3201904296875,0.33770751953125,0.63055419921875,0.12890625,0.32421875,-0.18359375,0.005859375,0.025390625,0.01171875
2026-09-07T13:11:09.916981,0.620849609375,0.3206787109375,0.3310546875,0.6300048828125,-0.1328125,0.0234375,0.14453125,-0.00390625,0.02734375,0.0
2026-09-07T13:11:10.021583,0.62042236328125,0.3209228515625,0.340087890625,0.62957763671875,0.08203125,0.046875,-0.26171875,-0.00390625,0.025390625,-0.0078125
2026-09-07T13:11:10.121031,0.6201171875,0.32122802734375,0.34136962890625,0.62908935546875,-0.125,0.34765625,-0.046875,0.01171875,0.02734375,0.009765625
2026-09-07T13:11:10.221977,0.6192626953125,0.321044921875,0.34326171875,0.62896728515625,-0.1171875,0.3203125,0.0859375,-0.01171875,0.02734375,0.013671875
2026-09-07T13:11:10.321260,0.6185302734375,0.32098388671875,0.3448486328125,0.62890625,0.2890625,0.13671875,0.40625,0.005859375,0.021484375,0.01171875
2026-09-07T13:11:10.416941,0.61846923828125,0.32122802734375,0.345947265625,0.62823486328125,0.390625,-0.6796875,0.19921875,0.015625,0.021484375,0.015625
2026-09-07T13:11:10.521539,0.6182861328125,0.31866455078125,0.34979248046875,0.6275634765625,-0.1484375,-0.328125,0.19140625,-0.001953125,0.02734375,0.00390625
2026-09-07T13:11:10.621242,0.61785888671875,0.31756591796875,0.351806640625,0.62738037109375,0.234375,0.4453125,0.11328125,0.005859375,0.01171875,0.00390625
2026-09-07T13:11:10.721256,0.61669921875,0.31695556640625,0.3531494140625,0.62811279296875,-0.1328125,-0.4375,-0.484375,-0.01953125,0.01171875,-0.0078125
2026-09-07T13:11:10.820680,0.61578369140625,0.31640625,0.3544921875,0.62847900390625,0.17578125,-0.859375,0.55859375,-0.05078125,0.01171875,0.001953125
2026-09-07T13:11:10.921157,0.615234375,0.3160400390625,0.35565185546875,0.6285400390625,0.2890625,-0.12109375,0.3125,-0.013671875,0.015625,0.001953125
2026-09-07T13:11:11.021657,0.6151123046875,0.3157958984375,0.3564453125,0.62841796875,0.3359375,-0.3046875,0.54296875,0.01171875,0.009765625,0.005859375
2026-09-07T13:11:11.120998,0.61474609375,0.3153076171875,0.35638427734375,0.6290283203125,-0.19140625,-0.23046875,0.87109375,0.0,-0.00390625,-0.01953125
2026-09-07T13:11:11.221119,0.61224365234375,0.31341552734375,0.35723876953125,0.63189697265625,-0.03125,0.1015625,-0.03125,-0.01171875,-0.015625,-0.017578125
2026-09-07T13:11:11.320822,0.6097412109375,0.31182861328125,0.3585205078125,0.6343994140625,0.23046875,0.0078125,-0.359375,0.017578125,-0.01171875,0.02734375
2026-09-07T13:11:11.421106,0.6077880859375,0.31072998046875,0.3592529296875,0.6363525390625,0.0546875,0.015625,-0.54296875,-0.001953125,-0.00390625,-0.0078125
2026-09-07T13:11:11.520809,0.60736083984375,0.31011962890625,0.3592529296875,0.6370849609375,0.08203125,0.109375,-0.13671875,-0.013671875,-0.0078125,-0.0078125
2026-09-07T13:11:11.621123,0.607666015625,0.30963134765625,0.35931396484375,0.636962890625,-0.13671875,0.27734375,-0.3203125,0.013671875,-0.005859375,-0.005859375
2026-09-07T13:11:11.721369,0.607666015625,0.309326171875,0.35906982421875,0.63726806640625,-0.25390625,0.125,-0.11328125,0.0,-0.0078125,0.0
2026-09-07T13:11:11.819216,0.607421875,0.30938720703125,0.358642578125,0.63775634765625,-0.328125,-0.2421875,-0.296875,-0.00390625,-0.00390625,-0.021484375
2026-09-07T13:11:11.921445,0.60736083984375,0.30987548828125,0.35797119140625,0.637939453125,-0.13671875,-0.05078125,-0.00390625,-0.009765625,-0.00390625,0.005859375
2026-09-07T13:11:12.021316,0.6072998046875,0.310791015625,0.35699462890625,0.6380615234375,0.01171875,0.00390625,0.07421875,0.005859375,-0.001953125,-0.005859375
2026-09-07T13:11:12.121911,0.60723876953125,0.31158447265625,0.3560791015625,0.6383056640625,-0.08203125,0.0546875,-0.00390625,-0.00390625,-0.001953125,-0.01171875
2026-09-07T13:11:12.222163,0.60699462890625,0.31231689453125,0.3553466796875,0.6385498046875,0.30078125,-0.23046875,-0.08984375,-0.01171875,0.0,-0.00390625
2026-09-07T13:11:12.321515,0.6068115234375,0.3131103515625,0.3548583984375,0.63861083984375,0.02734375,-0.11328125,-0.0625,-0.005859375,0.00390625,-0.00390625
2026-09-07T13:11:12.422245,0.60699462890625,0.31427001953125,0.35406494140625,0.63824462890625,-0.1171875,-0.16796875,0.2421875,0.0,0.00390625,-0.015625
2026-09-07T13:11:12.530979,0.60711669921875,0.31524658203125,0.3533935546875,0.6380615234375,-0.31640625,0.140625,0.01953125,0.005859375,0.0078125,-0.015625
2026-09-07T13:11:12.620127,0.60650634765625,0.31732177734375,0.3514404296875,0.638671875,-0.31640625,0.27734375,-0.1796875,-0.013671875,-0.001953125,-0.013671875
2026-09-07T13:11:12.722649,0.60589599609375,0.31964111328125,0.34918212890625,0.63934326171875,-0.05859375,0.24609375,-0.1640625,-0.009765625,-0.001953125,-0.005859375
2026-09-07T13:11:12.822773,0.60546875,0.32171630859375,0.34759521484375,0.6396484375,-0.2265625,-0.0859375,0.08203125,-0.0078125,0.005859375,0.0078125
2026-09-07T13:11:12.919347,0.60516357421875,0.3226318359375,0.3468017578125,0.639892578125,-0.2265625,-0.03125,-0.0859375,0.021484375,0.00390625,-0.0078125
2026-09-07T13:11:13.020079,0.604248046875,0.324462890625,0.3450927734375,0.64068603515625,0.07421875,0.32421875,-0.0859375,-0.0078125,0.001953125,0.0
2026-09-07T13:11:13.119272,0.6033935546875,0.32635498046875,0.3433837890625,0.6414794921875,-0.03515625,-0.11328125,-0.00390625,0.005859375,0.00390625,0.0
2026-09-07T13:11:13.219866,0.60284423828125,0.32769775390625,0.34222412109375,0.64190673828125,0.40234375,0.046875,-0.05078125,-0.001953125,0.001953125,-0.00390625
2026-09-07T13:11:13.319128,0.60247802734375,0.328125,0.34197998046875,0.6422119140625,0.125,-0.14453125,0.1796875,-0.015625,0.00390625,0.005859375
2026-09-07T13:11:13.420159,0.6025390625,0.3284912109375,0.34185791015625,0.64202880859375,-0.09765625,-0.12890625,0.01953125,0.001953125,0.005859375,-0.00390625
2026-09-07T13:11:13.519378,0.602783203125,0.32861328125,0.34173583984375,0.64178466796875,0.26171875,-0.14453125,0.00390625,0.005859375,0.0,-0.009765625
2026-09-07T13:11:13.619022,0.60272216796875,0.32855224609375,0.34173583984375,0.641845703125,0.18359375,0.20703125,-0.01953125,-0.0078125,0.0,0.001953125
2026-09-07T13:11:13.714867,0.60284423828125,0.32830810546875,0.3421630859375,0.64166259765625,0.09765625,-0.046875,-0.0859375,0.001953125,0.00390625,-0.005859375
2026-09-07T13:11:13.819713,0.60302734375,0.32794189453125,0.34259033203125,0.6414794921875,0.14453125,0.125,0.01171875,-0.00390625,0.0,0.005859375
2026-09-07T13:11:13.919965,0.60321044921875,0.3275146484375,0.34295654296875,0.64129638671875,0.05078125,-0.08203125,0.05859375,0.013671875,0.001953125,-0.015625
2026-09-07T13:11:14.019249,0.603515625,0.32696533203125,0.34356689453125,0.64093017578125,-0.0546875,0.20703125,0.11328125,0.001953125,0.001953125,0.00390625
2026-09-07T13:11:14.119033,0.603515625,0.32623291015625,0.3443603515625,0.640869140625,0.39453125,0.13671875,-0.09765625,-0.009765625,-0.001953125,0.001953125
2026-09-07T13:11:14.219733,0.60369873046875,0.32452392578125,0.34576416015625,0.640869140625,0.09375,-0.22265625,0.01953125,-0.017578125,0.0,0.001953125
2026-09-07T13:11:14.319752,0.60430908203125,0.3218994140625,0.3482666015625,0.6402587890625,0.23046875,0.0625,0.1328125,-0.01171875,0.00390625,0.0
2026-09-07T13:11:14.419366,0.60479736328125,0.31927490234375,0.35076904296875,0.63970947265625,0.21484375,-0.2578125,0.140625,-0.00390625,-0.001953125,0.00390625
2026-09-07T13:11:14.519210,0.6053466796875,0.31658935546875,0.35302734375,0.6392822265625,0.09765625,0.1796875,0.0625,0.013671875,-0.00390625,-0.0078125
2026-09-07T13:11:14.626863,0.6058349609375,0.31353759765625,0.35565185546875,0.638916015625,-0.125,0.0625,-0.06640625,0.00390625,0.0,-0.013671875
2026-09-07T13:11:14.712965,0.60614013671875,0.3106689453125,0.35809326171875,0.63861083984375,-0.10546875,0.4140625,-0.19921875,-0.263671875,-0.00390625,-0.005859375
2026-09-07T13:11:14.814547,0.60638427734375,0.3082275390625,0.36016845703125,0.638427734375,-0.09765625,0.3515625,-0.13671875,-0.013671875,-0.00390625,0.0078125
2026-09-07T13:11:15.048023,0.60723876953125,0.306396484375,0.36175537109375,0.63763427734375,-0.109375,0.03125,-0.11328125,-0.021484375,-0.0078125,0.001953125
2026-09-07T13:11:15.134791,0.60699462890625,0.30499267578125,0.36212158203125,0.63824462890625,0.12109375,-0.05078125,-0.12109375,-0.001953125,-0.013671875,-0.00390625
2026-09-07T13:11:15.686140,0.60687255859375,-1.8516845703125,-6.103515625e-05,-6.103515625e-05,0.12109375,-0.05078125,-0.12109375,0.00390625,-0.013671875,-0.017578125
2026-09-07T13:11:15.786333,0.60687255859375,-1.8516845703125,-6.103515625e-05,-6.103515625e-05,0.12109375,-0.05078125,-0.12109375,0.00390625,-0.013671875,-0.017578125
2026-09-07T13:11:15.886796,0.60687255859375,-1.8516845703125,-6.103515625e-05,-6.103515625e-05,0.12109375,-0.05078125,-0.12109375,0.00390625,-0.013671875,-0.017578125
2026-09-07T13:11:15.985555,0.60687255859375,-1.8516845703125,-6.103515625e-05,-6.103515625e-05,0.12109375,-0.05078125,-0.12109375,0.00390625,-0.013671875,-0.017578125
2026-09-07T13:11:16.084995,0.60687255859375,-1.8516845703125,-6.103515625e-05,-6.103515625e-05,0.12109375,-0.05078125,-0.12109375,0.00390625,-0.013671875,-0.017578125
2026-09-07T13:11:16.186016,0.60687255859375,-1.8516845703125,-6.103515625e-05,-6.103515625e-05,0.12109375,-0.05078125,-0.12109375,0.00390625,-0.013671875,-0.017578125
2026-09-07T13:11:16.286845,0.60687255859375,-1.8516845703125,-6.103515625e-05,-6.103515625e-05,0.12109375,-0.05078125,-0.12109375,0.00390625,-0.013671875,-0.017578125
2026-09-07T13:11:16.386923,0.60687255859375,-1.8516845703125,-6.103515625e-05,-6.103515625e-05,0.12109375,-0.05078125,-0.12109375,0.00390625,-0.013671875,-0.017578125
2026-09-07T13:11:16.487841,0.60687255859375,-1.8516845703125,-6.103515625e-05,-6.103515625e-05,0.12109375,-0.05078125,-0.12109375,0.00390625,-0.013671875,-0.017578125
2026-09-07T13:11:16.586906,0.60687255859375,-1.8516845703125,-6.103515625e-05,-6.103515625e-05,0.12109375,-0.05078125,-0.12109375,0.00390625,-0.013671875,-0.017578125
2026-09-07T13:11:16.686614,0.60687255859375,-1.8516845703125,-6.103515625e-05,-6.103515625e-05,0.12109375,-0.05078125,-0.12109375,0.00390625,-0.013671875,-0.017578125
2026-09-07T13:11:16.786561,0.60687255859375,-1.8516845703125,-6.103515625e-05,-6.103515625e-05,0.12109375,-0.05078125,-0.12109375,0.00390625,-0.013671875,-0.017578125
2026-09-07T13:11:16.887774,0.60687255859375,-1.8516845703125,-6.103515625e-05,-6.103515625e-05,0.12109375,-0.05078125,-0.12109375,0.00390625,-0.013671875,-0.017578125
2026-09-07T13:11:16.987861,0.60687255859375,-1.8516845703125,-6.103515625e-05,-6.103515625e-05,0.12109375,-0.05078125,-0.12109375,0.00390625,-0.013671875,-0.017578125
2026-09-07T13:11:17.087446,0.60687255859375,-1.8516845703125,-6.103515625e-05,-6.103515625e-05,0.12109375,-0.05078125,-0.12109375,0.00390625,-0.013671875,-0.017578125
2026-09-07T13:11:17.188394,0.60687255859375,-1.8516845703125,-6.103515625e-05,-6.103515625e-05,0.12109375,-0.05078125,-0.12109375,0.00390625,-0.013671875,-0.017578125
2026-09-07T13:11:17.287396,0.60687255859375,-1.8516845703125,-6.103515625e-05,-6.103515625e-05,0.12109375,-0.05078125,-0.12109375,0.00390625,-0.013671875,-0.017578125
2026-09-07T13:11:17.388283,0.60687255859375,-1.8516845703125,-6.103515625e-05,-6.103515625e-05,0.12109375,-0.05078125,-0.12109375,0.00390625,-0.013671875,-0.017578125
2026-09-07T13:11:17.488716,0.60687255859375,-1.8516845703125,-6.103515625e-05,-6.103515625e-05,0.12109375,-0.05078125,-0.12109375,0.00390625,-0.013671875,-0.017578125
2026-09-07T13:11:19.496657,0.454833984375,0.4718017578125,0.54376220703125,0.52423095703125,0.4140625,9.3046875,1.05859375,-0.001953125,-0.05859375,-0.00390625
2026-09-07T13:11:19.594919,0.45623779296875,0.470703125,0.542236328125,0.525634765625,0.40625,8.7890625,1.1875,0.00390625,-0.046875,0.0
2026-09-07T13:11:19.694912,0.45745849609375,0.46978759765625,0.54083251953125,0.52679443359375,0.51171875,8.9140625,0.89453125,0.00390625,-0.044921875,0.0
2026-09-07T13:11:19.792052,0.47705078125,0.4664306640625,0.54168701171875,0.5113525390625,0.09765625,0.1484375,-0.02734375,0.00390625,-0.0390625,0.0
2026-09-07T13:11:19.895473,0.478515625,0.46563720703125,0.54052734375,0.51190185546875,-0.09375,0.26171875,-0.1171875,0.0,-0.037109375,-0.0078125
2026-09-07T13:11:19.995235,0.479736328125,0.46466064453125,0.53955078125,0.51263427734375,-0.03125,-0.10546875,-0.078125,-0.001953125,-0.033203125,-0.00390625
2026-09-07T13:11:20.095045,0.48114013671875,0.46405029296875,0.5384521484375,0.5130615234375,-0.046875,0.0390625,-0.1171875,0.001953125,-0.03125,-0.01171875
2026-09-07T13:11:20.195463,0.48223876953125,0.46319580078125,0.537841796875,0.51348876953125,0.06640625,0.078125,-0.0234375,0.0,-0.033203125,0.0
2026-09-07T13:11:20.292989,0.4835205078125,0.46234130859375,0.537109375,0.5137939453125,0.01953125,0.0859375,-0.125,-0.0078125,-0.03125,-0.00390625
2026-09-07T13:11:20.401464,0.4844970703125,0.461669921875,0.53631591796875,0.5142822265625,-0.1015625,-0.07421875,-0.1171875,0.0078125,-0.03125,0.0
2026-09-07T13:11:20.493817,0.48602294921875,0.4605712890625,0.53521728515625,0.51495361328125,-0.046875,-0.19140625,0.21875,-0.00390625,-0.029296875,-0.005859375
2026-09-07T13:11:20.601723,0.48638916015625,0.46002197265625,0.53497314453125,0.515380859375,0.07421875,-0.11328125,0.3046875,0.0,-0.03125,0.0
2026-09-07T13:11:20.694185,0.48748779296875,0.4588623046875,0.5338134765625,0.51654052734375,0.16015625,-0.42578125,-0.03515625,0.001953125,-0.03125,-0.00390625
2026-09-07T13:11:20.789549,0.48785400390625,-1.54156494140625,0.53338623046875,0.51702880859375,0.015625,0.00390625,-0.171875,0.0,-0.03125,-0.01171875
2026-09-07T13:11:20.889734,0.4884033203125,0.45745849609375,0.5325927734375,0.51824951171875,0.12890625,0.03125,0.28515625,-0.001953125,-0.037109375,0.0
2026-09-07T13:11:21.002822,0.48907470703125,0.45654296875,0.53173828125,0.519287109375,0.05859375,-0.05078125,0.30078125,-0.005859375,-0.037109375,-0.005859375
2026-09-07T13:11:21.101227,0.48980712890625,0.455078125,0.530517578125,0.5211181640625,0.13671875,0.0234375,-0.01953125,0.0,-0.03515625,-0.005859375
2026-09-07T13:11:21.201087,0.490478515625,0.4541015625,0.52978515625,0.5220947265625,0.05859375,0.0546875,-0.11328125,0.001953125,-0.037109375,0.00390625
2026-09-07T13:11:21.301153,0.4912109375,0.45318603515625,0.52886962890625,0.5230712890625,-0.015625,-0.05078125,0.2109375,-0.025390625,-0.0390625,0.00390625
2026-09-07T13:11:21.390164,0.49151611328125,0.451904296875,0.528076171875,0.52471923828125,-0.1171875,0.1171875,0.1171875,-0.015625,-0.044921875,-0.009765625
2026-09-07T13:11:21.491718,0.49163818359375,0.451171875,0.527587890625,0.51788330078125,0.0,-0.09765625,0.37109375,-0.005859375,-0.05078125,-0.017578125
2026-09-07T13:11:21.602958,0.49200439453125,0.4495849609375,0.52642822265625,0.52789306640625,-0.296875,0.1875,0.12890625,-0.00390625,-0.060546875,-0.03125
2026-09-07T13:11:21.702787,0.49200439453125,0.44677734375,0.52459716796875,0.5321044921875,-0.37890625,-0.03515625,0.15234375,-0.02734375,-0.0625,0.017578125
2026-09-07T13:11:21.810459,0.492431640625,0.4454345703125,0.5228271484375,0.5345458984375,-0.35546875,0.1640625,-0.29296875,0.009765625,-0.064453125,-0.009765625
2026-09-07T13:11:21.901854,0.4932861328125,0.44415283203125,0.52099609375,0.53668212890625,-0.11328125,0.078125,-0.26953125,0.0,-0.0625,-0.00390625
2026-09-07T13:11:21.991151,0.4942626953125,0.44293212890625,0.51898193359375,0.5386962890625,-0.0078125,0.00390625,-0.140625,0.0078125,-0.0625,-0.01171875
2026-09-07T13:11:22.113154,0.4954833984375,0.4412841796875,0.5159912109375,0.54180908203125,-0.03515625,-0.07421875,0.02734375,-0.00390625,-0.060546875,-0.0078125
2026-09-07T13:11:22.201493,0.49560546875,0.4407958984375,0.514892578125,0.5430908203125,-0.05859375,-0.06640625,-0.1171875,0.009765625,-0.05859375,-0.03515625
2026-09-07T13:11:22.311864,0.49652099609375,0.43975830078125,0.5113525390625,0.5465087890625,0.015625,0.06640625,-0.13671875,0.013671875,-0.060546875,-0.015625
2026-09-07T13:11:22.409242,0.49688720703125,0.43963623046875,0.510009765625,0.5474853515625,0.09375,0.2109375,0.3671875,0.013671875,-0.0546875,-0.02734375
2026-09-07T13:11:22.510799,0.498291015625,0.43927001953125,0.50567626953125,0.55047607421875,0.19140625,-0.1875,0.04296875,0.03515625,-0.060546875,-0.037109375
2026-09-07T13:11:22.608829,0.49761962890625,0.43914794921875,0.5042724609375,0.552490234375,-0.1015625,-0.25390625,0.0078125,0.03125,-0.056640625,-0.03515625
2026-09-07T13:11:22.709228,0.49822998046875,0.438720703125,0.50152587890625,0.55474853515625,0.20703125,0.3515625,-0.0625,0.0390625,-0.060546875,-0.03125
2026-09-07T13:11:22.808910,0.49981689453125,0.4383544921875,0.498779296875,0.55609130859375,0.16015625,0.10546875,0.046875,0.041015625,-0.05078125,-0.0078125
2026-09-07T13:11:22.909344,0.5015869140625,0.43804931640625,0.4964599609375,0.55682373046875,-0.05078125,-0.1015625,-0.04296875,0.05078125,-0.044921875,-0.00390625
2026-09-07T13:11:22.989120,0.50396728515625,0.43817138671875,0.494384765625,0.556396484375,0.03515625,0.3046875,-0.4765625,0.048828125,-0.03515625,0.001953125
2026-09-07T13:11:23.113618,0.50701904296875,0.43853759765625,0.49224853515625,0.55523681640625,-0.02734375,0.51953125,-0.3984375,0.013671875,-0.017578125,0.009765625
2026-09-07T13:11:23.209175,0.5086669921875,0.43878173828125,0.49139404296875,0.5543212890625,-0.00390625,0.125,-0.05859375,0.01171875,-0.013671875,0.0078125
2026-09-07T13:11:23.309471,0.5107421875,0.439453125,0.49005126953125,0.55303955078125,-0.13671875,0.0625,0.05859375,0.046875,-0.013671875,0.00390625
2026-09-07T13:11:23.409100,0.51263427734375,0.440185546875,0.48883056640625,0.55181884765625,-0.09765625,0.0,0.04296875,0.0390625,-0.013671875,0.00390625
2026-09-07T13:11:23.509953,0.51446533203125,0.44110107421875,0.48736572265625,0.5506591796875,-0.203125,-0.25,0.03125,0.033203125,-0.01171875,-0.00390625
2026-09-07T13:11:23.608057,0.51593017578125,0.44183349609375,0.48614501953125,0.54974365234375,-0.1953125,0.19921875,-0.078125,0.037109375,-0.01171875,-0.005859375
2026-09-07T13:11:23.709315,0.51751708984375,0.4425048828125,0.48516845703125,0.54864501953125,-0.0078125,-0.16015625,0.36328125,0.05078125,-0.00390625,-0.005859375
2026-09-07T13:11:23.810628,0.5191650390625,0.44329833984375,0.4840087890625,0.54742431640625,-0.0234375,-0.23046875,-0.07421875,0.03125,-0.0078125,0.0078125
2026-09-07T13:11:23.910194,0.5218505859375,0.44549560546875,0.48150634765625,0.5452880859375,0.2578125,-0.4140625,0.20703125,0.044921875,-0.0078125,0.001953125
2026-09-07T13:11:23.996130,0.52294921875,0.44610595703125,0.48065185546875,0.54449462890625,0.05078125,0.22265625,0.015625,0.0234375,-0.01171875,0.01171875
2026-09-07T13:11:24.112653,0.52557373046875,0.44775390625,0.47808837890625,0.54290771484375,-0.21484375,-0.13671875,-0.12890625,0.02734375,-0.015625,0.017578125
2026-09-07T13:11:24.210244,0.52703857421875,0.4488525390625,0.47637939453125,0.54205322265625,0.0703125,-0.109375,0.09375,0.0234375,-0.01171875,0.0078125
2026-09-07T13:11:24.315236,0.52862548828125,0.44976806640625,0.47491455078125,0.541015625,-0.0625,-0.1171875,-0.140625,0.0234375,-0.009765625,0.021484375
2026-09-07T13:11:24.410613,0.530029296875,0.45062255859375,0.47357177734375,0.5401611328125,-0.10546875,0.40625,-0.1328125,0.05078125,-0.01171875,-0.005859375
2026-09-07T13:11:24.507321,0.5313720703125,0.45257568359375,0.4710693359375,0.53936767578125,-0.05078125,-0.54296875,0.2265625,0.03515625,-0.01171875,0.015625
2026-09-07T13:11:24.611227,0.5325927734375,0.4544677734375,0.4686279296875,0.53863525390625,-0.14453125,-0.3046875,-0.109375,0.048828125,-0.009765625,-0.0078125
2026-09-07T13:11:24.812042,0.53436279296875,0.4559326171875,0.46600341796875,0.5379638671875,-0.21875,0.3515625,-0.0234375,0.01171875,-0.013671875,0.029296875
2026-09-07T13:11:24.913234,0.53564453125,0.45513916015625,0.46612548828125,0.53729248046875,-0.41015625,0.84375,-0.13671875,-0.001953125,-0.015625,0.0546875
2026-09-07T13:11:25.011011,0.537841796875,0.4541015625,0.46630859375,0.5357666015625,0.41015625,-0.921875,0.0625,0.05078125,-0.017578125,0.056640625
2026-09-07T13:11:25.108949,0.54046630859375,0.453857421875,0.4656982421875,0.53387451171875,0.76953125,-0.7578125,0.46875,0.03125,-0.01953125,0.06640625
2026-09-07T13:11:25.208208,0.54205322265625,0.4537353515625,0.4647216796875,0.533203125,0.5390625,-0.7890625,-0.12109375,0.021484375,-0.0234375,0.01953125
2026-09-07T13:11:25.308743,0.5439453125,0.4559326171875,0.461669921875,0.5321044921875,1.19140625,-1.578125,0.35546875,0.05078125,-0.017578125,0.005859375
2026-09-07T13:11:25.409619,0.54522705078125,0.45819091796875,0.4586181640625,0.53143310546875,0.09375,-0.25390625,0.2578125,0.015625,-0.01953125,0.021484375
2026-09-07T13:11:25.503617,0.5462646484375,0.45928955078125,0.4569091796875,0.5308837890625,0.83203125,-0.7734375,1.0703125,-0.03515625,-0.0234375,0.12890625
2026-09-07T13:11:25.609789,0.54656982421875,0.458740234375,0.45660400390625,0.53131103515625,0.203125,0.69140625,-0.69921875,0.033203125,-0.01171875,-0.025390625
2026-09-07T13:11:25.709808,0.54705810546875,0.45703125,0.4573974609375,0.5316162109375,-0.2265625,0.27734375,-0.80078125,-0.025390625,-0.015625,0.0078125
2026-09-07T13:11:25.809131,0.54644775390625,0.4561767578125,0.45782470703125,0.53265380859375,0.12109375,-0.10546875,-0.30859375,-0.095703125,0.001953125,0.1015625
2026-09-07T13:11:25.911398,0.54638671875,0.45452880859375,0.4591064453125,0.53302001953125,0.03125,-0.87109375,-0.2421875,-0.0078125,-0.0078125,0.015625
2026-09-07T13:11:26.007864,0.546142578125,0.45440673828125,0.45855712890625,0.5338134765625,0.55078125,-0.85546875,-0.953125,0.01171875,-0.001953125,-0.080078125
2026-09-07T13:11:26.109484,0.5445556640625,0.45501708984375,0.45751953125,0.53582763671875,0.07421875,0.19140625,0.25390625,0.013671875,-0.0078125,-0.083984375
2026-09-07T13:11:26.209313,0.5423583984375,0.45556640625,0.45672607421875,0.5382080078125,0.3359375,0.32421875,-0.39453125,-0.07421875,-0.005859375,-0.00390625
2026-09-07T13:11:26.310550,0.540771484375,0.45556640625,0.45635986328125,0.54010009765625,-0.4375,-0.3125,0.0234375,-0.037109375,-0.00390625,-0.0390625
2026-09-07T13:11:26.409421,0.54022216796875,0.4547119140625,0.456787109375,0.54107666015625,0.09375,-0.265625,-0.12890625,-0.052734375,-0.0078125,0.01171875
2026-09-07T13:11:26.509914,0.54046630859375,0.45416259765625,0.4566650390625,0.5413818359375,0.23046875,-0.82421875,0.50390625,-0.009765625,-0.013671875,0.005859375
2026-09-07T13:11:26.608721,0.54071044921875,0.4542236328125,0.45574951171875,0.5418701171875,0.3359375,-0.3515625,0.16015625,0.01953125,-0.015625,-0.017578125
2026-09-07T13:11:26.709678,0.54010009765625,0.453125,0.45611572265625,0.5430908203125,-0.015625,0.05859375,0.2578125,-0.017578125,-0.013671875,-0.025390625
2026-09-07T13:11:26.809734,0.539794921875,0.45263671875,0.4560546875,0.54388427734375,0.09765625,0.41015625,-0.0625,-0.01953125,-0.01171875,-0.005859375
2026-09-07T13:11:26.910215,0.539794921875,0.45208740234375,0.4559326171875,0.54437255859375,-0.09375,-0.50390625,0.234375,0.01953125,-0.009765625,-0.03125
2026-09-07T13:11:27.007555,0.53985595703125,0.45111083984375,0.455810546875,0.54522705078125,-0.18359375,0.1171875,0.21875,-0.015625,-0.01953125,-0.001953125
2026-09-07T13:11:27.110020,0.54058837890625,0.4495849609375,0.455322265625,0.54620361328125,-0.23828125,0.5,0.0859375,0.0234375,-0.033203125,-0.005859375
2026-09-07T13:11:27.209370,0.54083251953125,0.446533203125,0.4561767578125,0.5477294921875,0.25,0.07421875,0.1015625,0.0234375,-0.04296875,0.025390625
2026-09-07T13:11:27.310245,0.54156494140625,0.44354248046875,0.45721435546875,0.54852294921875,0.2890625,-0.3828125,-0.265625,0.009765625,-0.0390625,0.021484375
2026-09-07T13:11:27.409613,0.54266357421875,0.4410400390625,0.45806884765625,0.548828125,0.1875,-0.296875,-0.41015625,-0.001953125,-0.029296875,0.0078125
2026-09-07T13:11:27.503209,0.5445556640625,0.43914794921875,0.45831298828125,0.54827880859375,0.15234375,0.0703125,-0.01953125,-0.015625,-0.03125,0.005859375
2026-09-07T13:11:27.603092,0.54608154296875,0.43756103515625,0.45849609375,0.5478515625,0.0625,0.30859375,-0.1640625,-0.0234375,-0.021484375,-0.0234375
2026-09-07T13:11:27.710640,0.5477294921875,0.4361572265625,0.45849609375,0.54730224609375,-0.34375,0.3828125,0.16015625,-0.001953125,-0.01953125,-0.021484375
2026-09-07T13:11:27.809511,0.54931640625,0.43505859375,0.4581298828125,0.54693603515625,-0.17578125,0.05078125,0.39453125,0.013671875,-0.02734375,0.005859375
2026-09-07T13:11:27.918813,0.55072021484375,0.43377685546875,0.45794677734375,0.546630859375,-0.06640625,-0.67578125,-0.1171875,0.0078125,-0.02734375,0.029296875
2026-09-07T13:11:28.010107,0.55181884765625,0.433349609375,0.45751953125,0.5462646484375,-0.18359375,-0.359375,-0.484375,0.009765625,-0.015625,0.005859375
2026-09-07T13:11:28.111240,0.55279541015625,0.43304443359375,0.45733642578125,0.545654296875,-0.12109375,-0.08984375,-0.0625,-0.0078125,-0.0078125,0.00390625
2026-09-07T13:11:28.207395,0.5537109375,0.4334716796875,0.45660400390625,0.54498291015625,-0.015625,0.20703125,0.0234375,-0.0078125,-0.0078125,-0.009765625
2026-09-07T13:11:28.318880,0.5543212890625,0.43475341796875,0.455078125,0.544677734375,-0.2890625,0.12109375,0.26171875,-0.015625,0.0,-0.029296875
2026-09-07T13:11:28.406099,0.55419921875,0.43499755859375,0.45477294921875,0.54486083984375,-0.48046875,0.17578125,0.31640625,0.01953125,-0.0078125,0.00390625
2026-09-07T13:11:28.508544,0.5550537109375,0.435302734375,0.45391845703125,0.54443359375,-0.1796875,0.765625,0.421875,0.041015625,-0.017578125,0.0234375
2026-09-07T13:11:28.602011,0.5552978515625,0.435791015625,0.45263671875,0.5447998046875,-0.03515625,-0.20703125,0.22265625,-0.001953125,-0.01171875,0.013671875
2026-09-07T13:11:28.708579,0.55517578125,0.435791015625,0.45245361328125,0.54510498046875,-0.1796875,0.27734375,-0.19921875,-0.01953125,-0.01171875,0.015625
2026-09-07T13:11:28.807678,0.55535888671875,0.435546875,0.45220947265625,0.54534912109375,0.83984375,-0.48046875,-0.3046875,-0.013671875,-0.00390625,0.001953125
2026-09-07T13:11:28.907505,0.554931640625,0.4356689453125,0.4517822265625,0.5460205078125,0.0625,0.03125,1.3203125,-0.01171875,-0.005859375,0.005859375
2026-09-07T13:11:29.008168,0.55572509765625,0.43585205078125,0.45147705078125,0.5452880859375,0.16796875,0.13671875,-0.26953125,0.01171875,-0.001953125,0.005859375
2026-09-07T13:11:29.102988,0.55621337890625,0.43511962890625,0.45184326171875,0.54510498046875,0.17578125,0.04296875,-0.30859375,0.001953125,-0.01171875,0.015625
2026-09-07T13:11:29.207788,0.55694580078125,0.4345703125,0.4515380859375,0.5450439453125,0.61328125,-0.11328125,0.02734375,0.00390625,-0.017578125,-0.013671875
2026-09-07T13:11:29.307877,0.55645751953125,0.433349609375,0.45196533203125,0.546142578125,0.0625,0.0546875,-0.31640625,-0.044921875,-0.01171875,0.00390625
2026-09-07T13:11:29.408113,0.55633544921875,0.43145751953125,0.45318603515625,0.5467529296875,0.8046875,-0.16796875,0.28125,-0.00390625,-0.00390625,0.013671875
2026-09-07T13:11:29.507871,0.556396484375,0.4306640625,0.4534912109375,0.54705810546875,0.375,-0.3125,-0.03515625,0.005859375,-0.009765625,-0.021484375
2026-09-07T13:11:29.601138,0.55718994140625,0.4298095703125,0.45355224609375,0.54681396484375,-0.5234375,-0.07421875,0.28125,0.025390625,-0.01171875,-0.005859375
2026-09-07T13:11:29.707485,0.55841064453125,0.4288330078125,0.45367431640625,0.54632568359375,-0.30859375,0.0390625,-0.4296875,0.01171875,-0.01953125,0.005859375
2026-09-07T13:11:29.807445,0.55902099609375,0.42779541015625,0.45361328125,0.5465087890625,-0.0390625,0.8125,-0.62109375,0.01171875,-0.01953125,-0.0078125
2026-09-07T13:11:29.915029,0.55914306640625,0.427001953125,0.45355224609375,0.547119140625,-0.4140625,0.5078125,-0.4375,-0.025390625,-0.009765625,-0.00390625
2026-09-07T13:11:30.007047,0.55889892578125,0.42681884765625,0.45330810546875,0.54766845703125,-0.296875,-0.1015625,0.453125,0.00390625,-0.0078125,-0.017578125
2026-09-07T13:11:30.115458,0.559326171875,0.427490234375,0.45220947265625,0.54766845703125,0.0234375,-0.0078125,-0.03125,0.017578125,-0.009765625,-0.00390625
2026-09-07T13:11:30.206972,0.5599365234375,0.427490234375,0.451416015625,0.54766845703125,-0.08984375,0.16015625,-0.0546875,0.00390625,-0.017578125,0.013671875
2026-09-07T13:11:30.315726,0.56048583984375,0.42718505859375,0.45086669921875,0.54779052734375,0.8984375,-0.25390625,-0.17578125,-0.0078125,-0.013671875,0.013671875
2026-09-07T13:11:30.414203,0.56097412109375,0.4268798828125,0.4503173828125,0.5479736328125,-0.3125,-0.53125,-0.60546875,-0.044921875,-0.009765625,0.01171875
2026-09-07T13:11:30.515540,0.56109619140625,0.42626953125,0.45013427734375,0.54852294921875,0.8046875,-1.45703125,-0.65234375,-0.03515625,-0.01171875,-0.037109375
2026-09-07T13:11:30.602951,0.560546875,0.426025390625,0.4498291015625,0.54949951171875,0.23046875,-1.09765625,-0.61328125,0.00390625,-0.0078125,-0.01953125
2026-09-07T13:11:30.703491,0.560302734375,0.4267578125,0.4488525390625,0.5499267578125,0.37109375,0.14453125,0.25390625,0.0,0.0,-0.0234375
2026-09-07T13:11:30.802660,0.56036376953125,0.4281005859375,0.4473876953125,0.550048828125,-0.11328125,0.16015625,0.3515625,0.013671875,0.0,-0.041015625
2026-09-07T13:11:30.914624,0.56097412109375,0.42913818359375,0.44580078125,0.54986572265625,-0.06640625,-0.015625,-0.25,0.06640625,-0.015625,-0.033203125
2026-09-07T13:11:31.016239,0.5616455078125,0.4285888671875,0.44549560546875,0.5499267578125,-0.1953125,0.3671875,-0.10546875,-0.021484375,-0.013671875,0.00390625
2026-09-07T13:11:31.117703,0.56158447265625,0.42742919921875,0.44598388671875,0.55047607421875,0.0859375,-0.3125,0.22265625,-0.0078125,-0.005859375,0.017578125
2026-09-07T13:11:31.216217,0.5621337890625,0.4266357421875,0.44647216796875,0.55010986328125,-0.19921875,-0.19140625,0.25390625,-0.00390625,0.0,-0.00390625
2026-09-07T13:11:31.316061,0.56231689453125,0.4261474609375,0.44677734375,0.550048828125,-0.05078125,0.19140625,0.0078125,-0.029296875,-0.005859375,0.005859375
2026-09-07T13:11:31.402238,0.56207275390625,0.42608642578125,0.446533203125,0.55059814453125,0.16015625,0.46875,-0.1015625,0.005859375,-0.001953125,-0.029296875
2026-09-07T13:11:31.503360,0.561767578125,0.42608642578125,0.4462890625,0.55108642578125,-0.375,-0.00390625,-0.27734375,0.005859375,0.0,-0.03515625
2026-09-07T13:11:31.618290,0.561279296875,0.42620849609375,0.44598388671875,0.55169677734375,-0.2890625,0.37109375,0.01171875,0.0078125,0.0,-0.03515625
2026-09-07T13:11:31.717504,0.5611572265625,0.42669677734375,0.445556640625,0.55181884765625,0.02734375,0.17578125,-0.1328125,-0.00390625,0.00390625,-0.00390625
2026-09-07T13:11:31.817861,0.5606689453125,0.4267578125,0.44549560546875,0.55230712890625,-0.19140625,0.03515625,0.0546875,0.0078125,-0.001953125,0.005859375
2026-09-07T13:11:31.918100,0.560791015625,0.42816162109375,0.44378662109375,0.552490234375,0.015625,0.16796875,-0.4296875,0.0078125,-0.00390625,0.013671875
2026-09-07T13:11:32.001912,0.56060791015625,0.428955078125,0.44287109375,0.552734375,0.11328125,0.03125,-0.2578125,-0.009765625,0.005859375,-0.005859375
2026-09-07T13:11:32.110586,0.56048583984375,0.429443359375,0.442626953125,0.552734375,0.015625,0.4296875,0.0625,0.001953125,0.005859375,0.017578125
2026-09-07T13:11:32.217751,0.56085205078125,0.43060302734375,0.44158935546875,0.55224609375,-0.0390625,0.26953125,0.14453125,0.0234375,0.0,-0.009765625
2026-09-07T13:11:32.318738,0.56103515625,0.43170166015625,0.44049072265625,0.5521240234375,-0.22265625,0.4375,-0.4453125,0.025390625,0.005859375,-0.01171875
2026-09-07T13:11:32.417027,0.561279296875,0.425048828125,0.43951416015625,0.5517578125,-0.13671875,0.13671875,-0.11328125,0.013671875,0.00390625,0.00390625
2026-09-07T13:11:32.519262,0.56121826171875,0.43359375,0.43896484375,0.55169677734375,-0.015625,0.06640625,0.09375,-0.0078125,0.00390625,0.01953125
2026-09-07T13:11:32.608959,0.561279296875,0.4344482421875,0.43817138671875,0.55157470703125,0.0703125,-0.01171875,-0.1953125,-0.0234375,0.00390625,0.029296875
2026-09-07T13:11:32.717386,0.560791015625,0.43560791015625,0.4373779296875,0.5517578125,-0.18359375,0.11328125,0.33984375,0.013671875,0.005859375,0.005859375
2026-09-07T13:11:32.817902,0.56109619140625,0.43646240234375,0.43695068359375,0.5511474609375,0.14453125,0.07421875,-0.07421875,0.001953125,0.0078125,0.01953125
2026-09-07T13:11:32.928565,0.561279296875,0.43707275390625,0.4366455078125,0.55072021484375,-0.03125,0.21484375,-0.15234375,-0.015625,0.0,0.009765625
2026-09-07T13:11:33.016350,0.5604248046875,0.43743896484375,0.4366455078125,0.55126953125,-0.0078125,0.06640625,0.05859375,-0.0078125,0.00390625,0.0
2026-09-07T13:11:33.110237,0.56036376953125,0.4376220703125,0.43658447265625,0.55120849609375,0.13671875,0.16015625,-0.01953125,0.0,0.005859375,-0.267578125
2026-09-07T13:11:33.218002,0.5599365234375,0.4381103515625,0.43646240234375,0.5513916015625,-0.0859375,0.015625,0.1796875,0.00390625,0.005859375,0.0
2026-09-07T13:11:33.317596,0.55963134765625,0.4385986328125,0.4364013671875,0.55133056640625,-0.078125,0.0078125,-0.04296875,-0.009765625,0.0078125,-0.00390625
2026-09-07T13:11:33.418120,0.5589599609375,0.43902587890625,0.43646240234375,0.5516357421875,-0.17578125,0.0625,0.00390625,-0.0078125,0.00390625,-0.005859375
2026-09-07T13:11:33.518878,0.55841064453125,0.4393310546875,0.43646240234375,0.552001953125,-0.12890625,-0.09375,0.00390625,-0.009765625,0.00390625,0.00390625
2026-09-07T13:11:33.610582,0.55816650390625,0.43988037109375,0.4361572265625,0.552001953125,0.14453125,-0.19921875,0.0390625,0.001953125,0.005859375,-0.01171875
2026-09-07T13:11:33.710694,0.55792236328125,0.4405517578125,0.435791015625,0.552001953125,-0.23828125,0.12890625,0.0234375,0.0,0.0078125,-0.0078125
2026-09-07T13:11:33.810223,0.5574951171875,0.44073486328125,0.43603515625,0.5521240234375,0.09375,0.0703125,-0.07421875,0.001953125,0.005859375,0.001953125
2026-09-07T13:11:33.926773,0.55731201171875,0.4407958984375,0.43609619140625,0.55224609375,0.3359375,0.24609375,-0.2265625,-0.04296875,0.0078125,0.001953125
2026-09-07T13:11:34.018820,0.556396484375,0.440673828125,0.4366455078125,0.55279541015625,0.12109375,-0.15625,0.171875,-0.013671875,0.01171875,-0.005859375
2026-09-07T13:11:34.127530,0.556396484375,0.440673828125,0.43695068359375,0.5526123046875,-0.01953125,0.12890625,0.22265625,-0.001953125,0.009765625,0.00390625
2026-09-07T13:11:34.226033,0.556640625,0.43994140625,0.4385986328125,0.551513671875,-0.0859375,0.28125,-0.0234375,-0.0078125,0.0078125,0.013671875
2026-09-07T13:11:34.326603,0.55694580078125,0.43890380859375,0.43988037109375,0.55108642578125,-0.15625,0.03515625,-0.16796875,-0.001953125,0.0078125,0.009765625
2026-09-07T13:11:34.426444,0.55712890625,0.4384765625,0.4407958984375,0.55047607421875,-0.1328125,-0.30078125,0.17578125,0.021484375,0.009765625,0.01171875
2026-09-07T13:11:34.515248,0.55731201171875,0.43829345703125,0.44158935546875,0.5498046875,0.01953125,0.0,0.12890625,-0.017578125,0.01171875,0.013671875
2026-09-07T13:11:34.616397,0.557373046875,0.43798828125,0.44219970703125,0.549560546875,-0.08203125,0.12890625,-0.0078125,0.021484375,0.009765625,-0.0078125
2026-09-07T13:11:34.716846,0.5499267578125,0.4376220703125,0.44305419921875,0.5487060546875,0.1953125,-0.65234375,-0.0234375,-0.009765625,0.009765625,0.001953125
2026-09-07T13:11:34.923603,0.55816650390625,0.43865966796875,0.44354248046875,0.547119140625,-0.21875,0.61328125,-0.05078125,0.044921875,0.02734375,0.0234375
2026-09-07T13:11:35.014768,0.5596923828125,0.43988037109375,0.4444580078125,0.54376220703125,-0.04296875,-0.140625,0.21875,0.03515625,0.033203125,0.01171875
2026-09-07T13:11:35.115884,0.5599365234375,0.44036865234375,0.44482421875,0.5428466796875,0.4765625,-0.67578125,-0.37109375,0.01953125,0.029296875,-0.01171875
2026-09-07T13:11:35.216451,0.5606689453125,0.44158935546875,0.4453125,0.54071044921875,-0.19140625,-0.0078125,-0.36328125,0.009765625,0.03515625,-0.015625
2026-09-07T13:11:35.316377,0.5623779296875,0.44256591796875,0.4462890625,0.537353515625,0.078125,0.0546875,-0.22265625,-0.005859375,0.03515625,0.015625
2026-09-07T13:11:35.416423,0.5634765625,0.44378662109375,0.44720458984375,0.53436279296875,0.24609375,-0.0859375,0.20703125,-0.017578125,0.04296875,0.01171875
2026-09-07T13:11:35.516095,0.563232421875,0.44573974609375,0.4476318359375,0.53265380859375,-0.046875,-0.0234375,0.24609375,0.025390625,0.041015625,-0.0078125
2026-09-07T13:11:35.615980,0.56341552734375,0.44781494140625,0.44781494140625,0.5306396484375,-0.0234375,-0.390625,-0.00390625,0.060546875,0.03515625,0.001953125
